timestamp,acceleration x (g),acceleration y (g),acceleration z (g),angular_velocity_x (dps),angular_velocity_y (dps),angular_velocity_z (dps),temperature (°c),longitude,latitude,time,x,y,z,magnitude,filtered magnitude
2025-02-05 05:00:28.790,0.0010,-0.0010,0.0259,0.0000,0.0000,0.0000,28.1500,106.60250017,35.20446917,0.0060,0.438940,0.396510,0.323620,0.674254,0.674254
2025-02-05 05:00:28.800,0.0013,-0.0003,0.0246,0.0000,0.0000,0.0000,28.2156,83.21365541,27.48052402,0.0060,0.438940,0.396510,0.323620,0.674254,0.674254
2025-02-05 05:00:28.810,0.0015,0.0001,0.0242,0.0000,0.0000,0.0000,28.2541,70.48708214,23.27769336,0.0060,0.438940,0.396510,0.323620,0.674254,0.674254
2025-02-05 05:00:28.820,0.0023,0.0007,0.0241,0.0000,0.0000,0.0000,28.2494,41.74938727,13.78734096,0.0060,0.438940,0.396510,0.323620,0.674254,0.674254
2025-02-05 05:00:28.830,0.0013,0.0003,0.0227,0.0000,0.0000,0.0000,28.2999,84.73197743,27.98193553,0.0060,0.438940,0.396510,0.323620,0.674254,0.674254
2025-02-05 05:00:28.840,-0.0000,0.0001,0.0244,0.0000,0.0000,0.0000,28.3276,102.17371756,33.74190553,0.0060,0.438940,0.396510,0.323620,0.674254,0.674254
2025-02-05 05:00:28.850,0.0006,0.0001,0.0252,0.0000,0.0000,0.0000,28.3301,103.78468646,34.27391280,0.0060,0.438940,0.396510,0.323620,0.674254,0.674254
2025-02-05 05:00:28.860,0.0013,0.0019,0.0243,0.0000,0.0000,0.0000,28.3232,104.57636632,34.53535760,0.0060,0.438940,0.396510,0.323620,0.674254,0.674254
2025-02-05 05:00:28.870,0.0006,0.0001,0.0233,0.0000,0.0000,0.0000,28.2056,105.02817764,34.68456402,0.0060,0.438940,0.396510,0.323620,0.674254,0.674254
2025-02-05 05:00:28.880,-0.0003,-0.0002,0.0237,0.0000,0.0000,0.0000,28.3207,106.60250017,35.20446917,0.0060,0.438940,0.396510,0.323620,0.674254,0.674254
2025-02-05 05:00:28.890,0.0013,-0.0031,0.0236,0.0000,0.0000,0.0000,28.3227,106.60250017,35.20446917,0.0060,0.438940,0.396510,0.323620,0.674254,0.674254
2025-02-05 05:00:28.900,0.0029,-0.0010,0.0270,0.0000,0.0000,0.0000,28.2464,106.60250017,35.20446917,0.0060,0.438940,0.396510,0.323620,0.674254,0.674254
2025-02-05 05:00:28.910,0.0011,-0.0002,0.0247,0.0000,0.0000,0.0000,28.4057,106.60250017,35.20446917,0.0060,0.438940,0.396510,0.323620,0.674254,0.674254
2025-02-05 05:00:28.920,0.0008,0.0007,0.0264,0.0000,0.0000,0.0000,28.2086,106.60250017,35.20446917,0.0060,0.438940,0.396510,0.323620,0.674254,0.674254
2025-02-05 05:00:28.930,-0.0011,-0.0027,0.0243,0.0000,0.0000,0.0000,28.2468,106.60250017,35.20446917,0.0060,0.438940,0.396510,0.323620,0.674254,0.674254
2025-02-05 05:00:28.940,0.0001,-0.0003,0.0244,0.0000,0.0000,0.0000,28.4158,106.60250017,35.20446917,0.0060,0.438940,0.396510,0.323620,0.674254,0.674254
2025-02-05 05:00:28.950,0.0007,0.0008,0.0237,0.0000,0.0000,0.0000,28.4205,106.60250017,35.20446917,0.0060,0.438940,0.396510,0.323620,0.674254,0.674254
2025-02-05 05:00:28.960,-0.0008,-0.0007,0.0241,0.0000,0.0000,0.0000,28.2993,106.60250017,35.20446917,0.0060,0.438940,0.396510,0.323620,0.674254,0.674254
2025-02-05 05:00:28.970,0.0015,-0.0017,0.0229,0.0000,0.0000,0.0000,28.2845,106.60250016,35.20446916,0.0060,0.438940,0.396510,0.323620,0.674254,0.674254
2025-02-05 05:00:28.980,0.0016,-0.0001,0.0233,0.0000,0.0000,0.0000,28.2058,106.60250016,35.20446916,0.0060,0.438940,0.396510,0.323620,0.674254,0.674254
2025-02-05 05:00:28.990,0.0009,0.0008,0.0221,0.0000,0.0000,0.0000,28.3038,106.60250013,35.20446913,0.0060,0.438940,0.396510,0.323620,0.674254,0.674254
2025-02-05 05:00:29.000,0.0014,0.0010,0.0243,0.0000,0.0000,0.0000,28.4169,106.60250003,35.20446903,0.0060,0.438940,0.396510,0.323620,0.674254,0.674254
2025-02-05 05:00:29.010,0.0017,-0.0009,0.0254,0.0000,0.0000,0.0000,28.3079,106.60250002,35.20446902,0.0060,0.438940,0.396510,0.323620,0.674254,0.674254
2025-02-05 05:00:29.020,0.0005,-0.0000,0.0229,0.0000,0.0000,0.0000,28.4243,106.60250001,35.20446901,0.0060,0.438940,0.396510,0.323620,0.674254,0.674254
2025-02-05 05:00:29.030,0.0023,0.0010,0.0230,0.0000,0.0000,0.0000,28.4229,106.60250001,35.20446901,0.0060,0.438940,0.396510,0.323620,0.674254,0.674254
2025-02-05 05:00:29.040,0.0011,-0.0006,0.0221,0.0000,0.0000,0.0000,28.2244,106.60250000,35.20446900,0.0060,0.438940,0.396510,0.323620,0.674254,0.674254
2025-02-05 05:00:29.050,0.0010,-0.0001,0.0234,0.0000,0.0000,0.0000,28.3300,106.60250000,35.20446900,0.0060,0.438940,0.396510,0.323620,0.674254,0.674254
2025-02-05 05:00:29.060,0.0016,-0.0007,0.0237,0.0000,0.0000,0.0000,28.2993,106.60250000,35.20446900,0.0060,0.438940,0.396510,0.323620,0.674254,0.674254
2025-02-05 05:00:29.070,-0.0015,0.0000,0.0239,0.0000,0.0000,0.0000,28.3400,106.60250000,35.20446900,0.0060,0.438940,0.396510,0.323620,0.674254,0.674254
2025-02-05 05:00:29.080,0.0010,0.0005,0.0234,0.0000,0.0000,0.0000,28.3400,106.60250000,35.20446900,0.0060,0.438940,0.396510,0.323620,0.674254,0.674254
2025-02-05 05:00:29.090,0.0015,0.0000,0.0234,0.0000,0.0000,0.0000,28.4700,106.60250000,35.20446900,0.0060,0.438940,0.396510,0.323620,0.674254,0.674254
2025-02-05 05:00:29.100,0.0000,-0.0010,0.0249,0.0000,0.0000,0.0000,28.1500,106.60250000,35.20446900,0.0060,0.438940,0.396510,0.323620,0.674254,0.674254
2025-02-05 05:00:29.110,0.0020,0.0015,0.0225,0.0000,0.0000,0.0000,28.5300,106.60250000,35.20446900,0.0060,0.438940,0.396510,0.323620,0.674254,0.674254
2025-02-05 05:00:29.120,0.0024,-0.0005,0.0225,0.0000,0.0000,0.0000,28.2100,106.60250000,35.20446900,0.0060,0.438940,0.396510,0.323620,0.674254,0.674254
2025-02-05 05:00:29.130,0.0010,-0.0024,0.0225,0.0000,0.0000,0.0000,28.3400,106.60250000,35.20446900,0.0060,0.438940,0.396510,0.323620,0.674254,0.674254
2025-02-05 05:00:29.140,0.0020,0.0005,0.0254,0.0000,0.0000,0.0000,28.2800,106.60250000,35.20446900,0.0060,0.438940,0.396510,0.323620,0.674254,0.674254
2025-02-05 05:00:29.150,0.0034,0.0000,0.0229,0.0000,0.0000,0.0000,28.4700,106.60250000,35.20446900,0.0060,0.438940,0.396510,0.323620,0.674254,0.674254
2025-02-05 05:00:29.160,0.0015,0.0010,0.0249,0.0000,0.0000,0.0000,28.2100,106.60250000,35.20446900,0.0060,0.438940,0.396510,0.323620,0.674254,0.674254
2025-02-05 05:00:29.170,0.0000,0.0000,0.0254,0.0000,0.0000,0.0000,28.4700,106.60250000,35.20446900,0.0060,0.438940,0.396510,0.323620,0.674254,0.674254
2025-02-05 05:00:29.180,0.0010,-0.0005,0.0239,0.0000,0.0000,0.0000,28.2800,106.60250000,35.20446900,0.0060,0.438940,0.396510,0.323620,0.674254,0.674254
2025-02-05 05:00:29.190,0.0005,-0.0020,0.0234,0.0000,0.0000,0.0000,28.3400,106.60250000,35.20446900,0.0060,0.438940,0.396510,0.323620,0.674254,0.674254
2025-02-05 05:00:29.200,0.0020,0.0000,0.0244,0.0000,0.0000,0.0000,28.5300,106.60250000,35.20446900,0.0060,0.438940,0.396510,0.323620,0.674254,0.674254
2025-02-05 05:00:29.210,0.0021,-0.0001,0.0244,0.0000,0.0000,0.0000,28.2226,106.60250000,35.20446900,0.0060,0.438940,0.396510,0.323620,0.674254,0.674254
2025-02-05 05:00:29.220,0.0020,0.0005,0.0249,0.0000,0.0000,0.0000,28.3400,106.60250000,35.20446900,0.0060,0.438940,0.396510,0.323620,0.674254,0.674254
2025-02-05 05:00:29.230,0.0010,-0.0015,0.0220,0.0000,0.0000,0.0000,28.5900,106.60250000,35.20446900,0.0060,0.438940,0.396510,0.323620,0.674254,0.674254
2025-02-05 05:00:29.240,0.0024,-0.0005,0.0239,0.0000,0.0000,0.0000,28.2800,106.60250000,35.20446900,0.0060,0.438940,0.396510,0.323620,0.674254,0.674254
2025-02-05 05:00:29.250,0.0005,-0.0010,0.0264,0.0000,0.0000,0.0000,28.0200,106.60250000,35.20446900,0.0060,0.438940,0.396510,0.323620,0.674254,0.674254
2025-02-05 05:00:29.260,0.0024,-0.0020,0.0249,0.0000,0.0000,0.0000,28.2800,106.60250000,35.20446900,0.0060,0.438940,0.396510,0.323620,0.674254,0.674254
2025-02-05 05:00:29.270,0.0029,0.0000,0.0244,0.0000,0.0000,0.0000,28.1500,106.60250000,35.20446900,0.0060,0.438940,0.396510,0.323620,0.674254,0.674254
2025-02-05 05:00:29.280,0.0000,0.0000,0.0229,0.0000,0.0000,0.0000,28.4700,106.60250000,35.20446900,0.0060,0.438940,0.396510,0.323620,0.674254,0.674254
2025-02-05 05:00:29.290,0.0000,-0.0010,0.0239,0.0000,0.0000,0.0000,28.3400,106.60250000,35.20446900,0.0060,0.438940,0.396510,0.323620,0.674254,0.674254
2025-02-05 05:00:29.300,0.0004,0.0003,0.0235,0.0000,0.0000,0.0000,28.2796,106.60250000,35.20446900,0.0060,0.438940,0.396510,0.323620,0.674254,0.674254
2025-02-05 05:00:29.310,-0.0005,0.0010,0.0234,0.0000,0.0000,0.0000,28.1500,106.60250000,35.20446900,0.0060,0.438940,0.396510,0.323620,0.674254,0.674254
2025-02-05 05:00:29.320,-0.0001,0.0000,0.0223,0.0000,0.0000,0.0000,28.2905,106.60250000,35.20446900,0.0060,0.438940,0.396510,0.323620,0.674254,0.674254
2025-02-05 05:00:29.330,0.0012,-0.0006,0.0235,0.0000,0.0000,0.0000,28.4442,106.60250000,35.20446900,0.0060,0.438940,0.396510,0.323620,0.674254,0.674254
2025-02-05 05:00:29.340,0.0009,-0.0000,0.0245,0.0000,0.0000,0.0000,28.2123,106.60250000,35.20446900,0.0060,0.438940,0.396510,0.323620,0.674254,0.674254
2025-02-05 05:00:29.350,-0.0002,-0.0002,0.0246,0.0000,0.0000,0.0000,28.3248,106.60250000,35.20446900,0.0060,0.438940,0.396510,0.323620,0.674254,0.674254
2025-02-05 05:00:29.360,0.0029,0.0005,0.0242,0.0000,0.0000,0.0000,28.2933,106.60250000,35.20446899,0.0060,0.438940,0.396510,0.323620,0.674254,0.674254
2025-02-05 05:00:29.370,0.0014,0.0012,0.0245,0.0000,0.0000,0.0000,28.3343,106.60250000,35.20446899,0.0060,0.438940,0.396510,0.323620,0.674254,0.674254
2025-02-05 05:00:29.380,0.0010,0.0009,0.0223,0.0000,0.0000,0.0000,28.3356,106.60250000,35.20446898,0.0060,0.438940,0.396510,0.323620,0.674254,0.674254
2025-02-05 05:00:29.390,0.0006,0.0004,0.0231,0.0000,0.0000,0.0000,28.3377,106.60250000,35.20446897,0.0060,0.438940,0.396510,0.323620,0.674254,0.674254
2025-02-05 05:00:29.400,0.0010,0.0019,0.0230,0.0000,0.0000,0.0000,28.3376,106.60250000,35.20446885,0.0060,0.438940,0.396510,0.323620,0.674254,0.674254
2025-02-05 05:00:29.410,0.0009,0.0008,0.0249,0.0000,0.0000,0.0000,28.3370,106.60250000,35.20446884,0.0060,0.438940,0.396510,0.323620,0.674254,0.674254
2025-02-05 05:00:29.420,0.0002,0.0021,0.0253,0.0000,0.0000,0.0000,28.3018,106.60250000,35.20446884,0.0060,0.438940,0.396510,0.323620,0.674254,0.674254
2025-02-05 05:00:29.430,0.0003,-0.0003,0.0254,0.0000,0.0000,0.0000,28.4143,106.60250000,35.20446883,0.0060,0.438940,0.396510,0.323620,0.674254,0.674254
2025-02-05 05:00:29.440,0.0007,0.0009,0.0223,0.0000,0.0000,0.0000,28.2498,106.60250000,35.20446883,0.0060,0.438940,0.396510,0.323620,0.674254,0.674254
2025-02-05 05:00:29.450,0.0017,0.0008,0.0230,0.0000,0.0000,0.0000,28.3278,106.60250000,35.20446883,0.0060,0.438940,0.396510,0.323620,0.674254,0.674254
2025-02-05 05:00:29.460,0.0012,0.0002,0.0223,0.0000,0.0000,0.0000,28.3247,106.60250000,35.20446883,0.0060,0.438940,0.396510,0.323620,0.674254,0.674254
2025-02-05 05:00:29.470,0.0013,0.0004,0.0223,0.0000,0.0000,0.0000,28.2427,106.60250000,35.20446883,0.0060,0.438940,0.396510,0.323620,0.674254,0.674254
2025-02-05 05:00:29.480,0.0029,0.0001,0.0227,0.0000,0.0000,0.0000,28.3164,106.60250000,35.20446883,0.0060,0.438940,0.396510,0.323620,0.674254,0.674254
2025-02-05 05:00:29.490,0.0023,0.0001,0.0246,0.0000,0.0000,0.0000,28.2386,106.60250000,35.20446883,0.0060,0.438940,0.396510,0.323620,0.674254,0.674254
2025-02-05 05:00:29.500,0.0016,0.0004,0.0228,0.0000,0.0000,0.0000,28.3169,106.60250000,35.20446883,0.0060,0.438940,0.396510,0.323620,0.674254,0.674254
2025-02-05 05:00:29.510,0.0019,-0.0005,0.0228,0.0000,0.0000,0.0000,28.3152,106.60250000,35.20446883,0.0060,0.438940,0.396510,0.323620,0.674254,0.674254
2025-02-05 05:00:29.520,0.0019,0.0013,0.0234,0.0000,0.0000,0.0000,28.2366,106.60250000,35.20446883,0.0060,0.438940,0.396510,0.323620,0.674254,0.674254
2025-02-05 05:00:29.530,0.0015,0.0009,0.0235,0.0000,0.0000,0.0000,28.2731,106.60250000,35.20446883,0.0060,0.438940,0.396510,0.323620,0.674254,0.674254
2025-02-05 05:00:29.540,0.0017,-0.0007,0.0243,0.0000,0.0000,0.0000,28.1982,106.60250000,35.20446882,0.0060,0.438940,0.396510,0.323620,0.674254,0.674254
2025-02-05 05:00:29.550,0.0001,-0.0010,0.0255,0.0000,0.0000,0.0000,28.2152,106.60250000,35.20446882,0.0060,0.438940,0.396510,0.323620,0.674254,0.674254
2025-02-05 05:00:29.560,0.0009,-0.0022,0.0222,0.0000,0.0000,0.0000,28.4350,106.60250000,35.20446882,0.0060,0.438940,0.396510,0.323620,0.674254,0.674254
2025-02-05 05:00:29.570,0.0007,-0.0013,0.0245,0.0000,0.0000,0.0000,28.4772,106.60250000,35.20446879,0.0060,0.438940,0.396510,0.323620,0.674254,0.674254
2025-02-05 05:00:29.580,0.0010,0.0007,0.0262,0.0000,0.0000,0.0000,28.3620,106.60250000,35.20446869,0.0060,0.438940,0.396510,0.323620,0.674254,0.674254
2025-02-05 05:00:29.590,0.0010,0.0000,0.0245,0.0000,0.0000,0.0000,28.4197,106.60250000,35.20446869,0.0060,0.438940,0.396510,0.323620,0.674254,0.674254
2025-02-05 05:00:29.600,0.0011,-0.0016,0.0234,0.0000,0.0000,0.0000,28.4133,106.60250000,35.20446868,0.0060,0.438940,0.396510,0.323620,0.674254,0.674254
2025-02-05 05:00:29.610,0.0011,0.0001,0.0217,0.0000,0.0000,0.0000,28.3217,106.60250000,35.20446867,0.0060,0.438940,0.396510,0.323620,0.674254,0.674254
2025-02-05 05:00:29.620,0.0016,-0.0015,0.0223,0.0000,0.0000,0.0000,28.1939,106.60250000,35.20446867,0.0060,0.438940,0.396510,0.323620,0.674254,0.674254
2025-02-05 05:00:29.630,0.0000,-0.0010,0.0229,0.0000,0.0000,0.0000,28.2800,106.60250000,35.20446867,0.0060,0.438940,0.396510,0.323620,0.674254,0.674254
2025-02-05 05:00:29.640,0.0021,-0.0015,0.0240,0.0000,0.0000,0.0000,28.2294,106.60250000,35.20446867,0.0060,0.438940,0.396510,0.323620,0.674254,0.674254
2025-02-05 05:00:29.650,0.0009,-0.0012,0.0233,0.0000,0.0000,0.0000,28.3687,106.60250000,35.20446867,0.0060,0.438940,0.396510,0.323620,0.674254,0.674254
2025-02-05 05:00:29.660,0.0010,0.0001,0.0244,0.0000,0.0000,0.0000,28.2011,106.60250000,35.20446867,0.0060,0.438940,0.396510,0.323620,0.674254,0.674254
2025-02-05 05:00:29.670,0.0016,-0.0002,0.0254,0.0000,0.0000,0.0000,28.1798,106.60250000,35.20446867,0.0060,0.438940,0.396510,0.323620,0.674254,0.674254
2025-02-05 05:00:29.680,0.0008,-0.0004,0.0250,0.0000,0.0000,0.0000,28.2677,106.60250000,35.20446867,0.0060,0.438940,0.396510,0.323620,0.674254,0.674254
2025-02-05 05:00:29.690,0.0007,-0.0002,0.0236,0.0000,0.0000,0.0000,28.3060,106.60250000,35.20446867,0.0060,0.438940,0.396510,0.323620,0.674254,0.674254
2025-02-05 05:00:29.700,0.0017,-0.0002,0.0246,0.0000,0.0000,0.0000,28.2841,106.60250000,35.20446867,0.0060,0.438940,0.396510,0.323620,0.674254,0.674254
2025-02-05 05:00:29.710,0.0012,-0.0004,0.0244,0.0000,0.0000,0.0000,28.3053,106.60250000,35.20446867,0.0060,0.438940,0.396510,0.323620,0.674254,0.674254
2025-02-05 05:00:29.720,0.0010,-0.0005,0.0238,0.0000,0.0000,0.0000,28.2499,106.60250000,35.20446867,0.0060,0.438940,0.396510,0.323620,0.674254,0.674254
2025-02-05 05:00:29.730,0.0019,-0.0010,0.0238,0.0000,0.0000,0.0000,28.2439,106.60250000,35.20446867,0.0060,0.438940,0.396510,0.323620,0.674254,0.674254
2025-02-05 05:00:29.740,0.0019,-0.0001,0.0250,0.0000,0.0000,0.0000,28.3883,106.60250000,35.20446867,0.0060,0.438940,0.396510,0.323620,0.674254,0.674254
2025-02-05 05:00:29.750,0.0015,0.0000,0.0259,0.0000,0.0000,0.0000,28.3880,106.60250000,35.20446867,0.0060,0.438940,0.396510,0.323620,0.674254,0.674254
2025-02-05 05:00:29.760,0.0005,0.0016,0.0255,0.0000,0.0000,0.0000,28.2971,106.60250000,35.20446867,0.0060,0.438940,0.396510,0.323620,0.674254,0.674254
2025-02-05 05:00:29.770,0.0013,0.0001,0.0249,0.0000,0.0000,0.0000,28.2601,106.60250000,35.20446867,0.0060,0.438940,0.396510,0.323620,0.674254,0.674254
2025-02-05 05:00:29.780,0.0008,-0.0002,0.0257,0.0000,0.0000,0.0000,28.2905,106.60250000,35.20446867,0.0060,0.438940,0.396510,0.323620,0.674254,0.674254
2025-02-05 05:00:29.790,0.0017,-0.0003,0.0241,0.0000,0.0000,0.0000,28.2677,106.60250000,35.20446867,0.0060,0.438940,0.396510,0.323620,0.674254,0.674254
2025-02-05 05:00:29.800,0.0020,0.0000,0.0254,0.0000,0.0000,0.0000,28.4700,106.60250000,35.20446867,0.0060,0.438940,0.396510,0.323620,0.674254,0.674254
2025-02-05 05:00:29.810,0.0021,-0.0007,0.0233,0.0000,0.0000,0.0000,28.3647,106.60250000,35.20446867,0.0060,0.438940,0.396510,0.323620,0.674254,0.674254
2025-02-05 05:00:29.820,0.0013,-0.0005,0.0236,0.0000,0.0000,0.0000,28.2451,106.60250000,35.20446867,0.0060,0.438940,0.396510,0.323620,0.674254,0.674254
2025-02-05 05:00:29.830,0.0007,0.0001,0.0233,0.0000,0.0000,0.0000,28.2813,106.60250000,35.20446867,0.0060,0.438940,0.396510,0.323620,0.674254,0.674254
2025-02-05 05:00:29.840,0.0010,-0.0001,0.0231,0.0000,0.0000,0.0000,28.1948,106.60250000,35.20446867,0.0060,0.438940,0.396510,0.323620,0.674254,0.674254
2025-02-05 05:00:29.850,0.0005,-0.0000,0.0236,0.0000,0.0000,0.0000,28.1577,106.60250000,35.20446867,0.0060,0.438940,0.396510,0.323620,0.674254,0.674254
2025-02-05 05:00:29.860,0.0015,-0.0002,0.0229,0.0000,0.0000,0.0000,28.2876,106.60250000,35.20446867,0.0060,0.438940,0.396510,0.323620,0.674254,0.674254
2025-02-05 05:00:29.870,0.0005,-0.0004,0.0233,0.0000,0.0000,0.0000,28.3084,106.60250000,35.20446867,0.0060,0.438940,0.396510,0.323620,0.674254,0.674254
2025-02-05 05:00:29.880,0.0005,0.0004,0.0243,0.0000,0.0000,0.0000,28.3070,106.60250000,35.20446867,0.0060,0.438940,0.396510,0.323620,0.674254,0.674254
2025-02-05 05:00:29.890,0.0003,-0.0000,0.0236,0.0000,0.0000,0.0000,28.3020,106.60250000,35.20446867,0.0060,0.438940,0.396510,0.323620,0.674254,0.674254
2025-02-05 05:00:29.900,0.0007,-0.0002,0.0233,0.0000,0.0000,0.0000,28.2747,106.60250000,35.20446867,0.0060,0.438940,0.396510,0.323620,0.674254,0.674254
2025-02-05 05:00:29.910,0.0006,-0.0003,0.0229,0.0000,0.0000,0.0000,28.2602,106.60250000,35.20446867,0.0060,0.438940,0.396510,0.323620,0.674254,0.674254
2025-02-05 05:00:29.920,0.0013,-0.0008,0.0230,0.0000,0.0000,0.0000,28.2772,106.60250000,35.20446867,0.0060,0.438940,0.396510,0.323620,0.674254,0.674254
2025-02-05 05:00:29.930,0.0008,-0.0002,0.0242,0.0000,0.0000,0.0000,28.2258,106.60250000,35.20446867,0.0060,0.438940,0.396510,0.323620,0.674254,0.674254
2025-02-05 05:00:29.940,0.0005,-0.0002,0.0246,0.0000,0.0000,0.0000,28.2478,106.60250000,35.20446867,0.0060,0.438940,0.396510,0.323620,0.674254,0.674254
2025-02-05 05:00:29.950,0.0006,-0.0001,0.0251,0.0000,0.0000,0.0000,28.2872,106.60250000,35.20446867,0.0060,0.438940,0.396510,0.323620,0.674254,0.674254
2025-02-05 05:00:29.960,0.0013,0.0007,0.0241,0.0000,0.0000,0.0000,28.3727,106.60250000,35.20446867,0.0060,0.438940,0.396510,0.323620,0.674254,0.674254
2025-02-05 05:00:29.970,0.0008,-0.0002,0.0236,0.0000,0.0000,0.0000,28.3040,106.60250000,35.20446867,0.0060,0.438940,0.396510,0.323620,0.674254,0.674254
2025-02-05 05:00:29.980,0.0008,-0.0001,0.0237,0.0000,0.0000,0.0000,28.3745,106.60249999,35.20446866,0.0060,0.438940,0.396510,0.323620,0.674254,0.674254
2025-02-05 05:00:29.990,0.0014,0.0007,0.0229,0.0000,0.0000,0.0000,28.3225,106.60249998,35.20446865,0.0060,0.438940,0.396510,0.323620,0.674254,0.674254
2025-02-05 05:00:30.000,0.0021,0.0008,0.0229,0.0000,0.0000,0.0000,28.3346,106.60249997,35.20446864,0.0060,0.438940,0.396510,0.323620,0.674254,0.674254
2025-02-05 05:00:30.010,0.0024,0.0007,0.0233,0.0000,0.0000,0.0000,28.3100,106.60249994,35.20446861,0.0060,0.438940,0.396510,0.323620,0.674254,0.674254
2025-02-05 05:00:30.020,0.0015,0.0016,0.0232,0.0000,0.0000,0.0000,28.4328,106.60249985,35.20446852,0.0060,0.438940,0.396510,0.323620,0.674254,0.674254
2025-02-05 05:00:30.030,0.0012,0.0009,0.0225,0.0000,0.0000,0.0000,28.3947,106.60249985,35.20446852,0.0060,0.438940,0.396510,0.323620,0.674254,0.674254
2025-02-05 05:00:30.040,0.0014,0.0006,0.0225,0.0000,0.0000,0.0000,28.3542,106.60249984,35.20446851,0.0060,0.438940,0.396510,0.323620,0.674254,0.674254
2025-02-05 05:00:30.050,0.0005,0.0003,0.0221,0.0000,0.0000,0.0000,28.3882,106.60249983,35.20446850,0.0060,0.438940,0.396510,0.323620,0.674254,0.674254
2025-02-05 05:00:30.060,0.0007,0.0012,0.0216,0.0000,0.0000,0.0000,28.3260,106.60249983,35.20446850,0.0060,0.438940,0.396510,0.323620,0.674254,0.674254
2025-02-05 05:00:30.070,0.0017,0.0000,0.0212,0.0000,0.0000,0.0000,28.2386,106.60249983,35.20446850,0.0060,0.438940,0.396510,0.323620,0.674254,0.674254
2025-02-05 05:00:30.080,0.0013,0.0011,0.0216,0.0000,0.0000,0.0000,28.4367,106.60249983,35.20446850,0.0060,0.438940,0.396510,0.323620,0.674254,0.674254
2025-02-05 05:00:30.090,0.0010,0.0002,0.0228,0.0000,0.0000,0.0000,28.4062,106.60249983,35.20446850,0.0060,0.438940,0.396510,0.323620,0.674254,0.674254
2025-02-05 05:00:30.100,0.0010,-0.0006,0.0232,0.0000,0.0000,0.0000,28.3199,106.60249983,35.20446850,0.0060,0.438940,0.396510,0.323620,0.674254,0.674254
2025-02-05 05:00:30.110,0.0016,-0.0004,0.0215,0.0000,0.0000,0.0000,28.3448,106.60249983,35.20446850,0.0060,0.438940,0.396510,0.323620,0.674254,0.674254
2025-02-05 05:00:30.120,0.0019,-0.0006,0.0216,0.0000,0.0000,0.0000,28.3864,106.60249983,35.20446850,0.0060,0.438940,0.396510,0.323620,0.674254,0.674254
2025-02-05 05:00:30.130,0.0018,-0.0009,0.0231,0.0000,0.0000,0.0000,28.3442,106.60249983,35.20446850,0.0060,0.438940,0.396510,0.323620,0.674254,0.674254
2025-02-05 05:00:30.140,0.0016,-0.0003,0.0237,0.0000,0.0000,0.0000,28.3314,106.60249983,35.20446850,0.0060,0.438940,0.396510,0.323620,0.674254,0.674254
2025-02-05 05:00:30.150,0.0019,-0.0002,0.0239,0.0000,0.0000,0.0000,28.3264,106.60249983,35.20446850,0.0060,0.438940,0.396510,0.323620,0.674254,0.674254
2025-02-05 05:00:30.160,0.0020,-0.0005,0.0233,0.0000,0.0000,0.0000,28.3140,106.60249983,35.20446850,0.0060,0.438940,0.396510,0.323620,0.674254,0.674254
2025-02-05 05:00:30.170,0.0017,-0.0007,0.0233,0.0000,0.0000,0.0000,28.2697,106.60249982,35.20446850,0.0060,0.438940,0.396510,0.323620,0.674254,0.674254
2025-02-05 05:00:30.180,0.0020,-0.0004,0.0231,0.0000,0.0000,0.0000,28.2328,106.60249981,35.20446850,0.0060,0.438940,0.396510,0.323620,0.674254,0.674254
2025-02-05 05:00:30.190,0.0016,-0.0007,0.0231,0.0000,0.0000,0.0000,28.2715,106.60249980,35.20446850,0.0060,0.438940,0.396510,0.323620,0.674254,0.674254
2025-02-05 05:00:30.200,0.0014,-0.0006,0.0235,0.0000,0.0000,0.0000,28.2401,106.60249977,35.20446850,0.0060,0.438940,0.396510,0.323620,0.674254,0.674254
2025-02-05 05:00:30.210,0.0014,-0.0002,0.0237,0.0000,0.0000,0.0000,28.2500,106.60249971,35.20446850,0.0060,0.438940,0.396510,0.323620,0.674254,0.674254
2025-02-05 05:00:30.220,0.0009,0.0005,0.0236,0.0000,0.0000,0.0000,28.2729,106.60249969,35.20446850,0.0060,0.438940,0.396510,0.323620,0.674254,0.674254
2025-02-05 05:00:30.230,0.0011,0.0011,0.0235,0.0000,0.0000,0.0000,28.2903,106.60249968,35.20446850,0.0060,0.438940,0.396510,0.323620,0.674254,0.674254
2025-02-05 05:00:30.240,0.0017,0.0013,0.0232,0.0000,0.0000,0.0000,28.3036,106.60249968,35.20446850,0.0060,0.438940,0.396510,0.323620,0.674254,0.674254
2025-02-05 05:00:30.250,0.0015,0.0013,0.0231,0.0000,0.0000,0.0000,28.2915,106.60249967,35.20446850,0.0060,0.438940,0.396510,0.323620,0.674254,0.674254
2025-02-05 05:00:30.260,0.0013,0.0013,0.0228,0.0000,0.0000,0.0000,28.2733,106.60249967,35.20446850,0.0060,0.438940,0.396510,0.323620,0.674254,0.674254
2025-02-05 05:00:30.270,0.0020,0.0010,0.0234,0.0000,0.0000,0.0000,28.2858,106.60249967,35.20446850,0.0060,0.438940,0.396510,0.323620,0.674254,0.674254
2025-02-05 05:00:30.280,0.0017,0.0001,0.0241,0.0000,0.0000,0.0000,28.2660,106.60249967,35.20446850,0.0060,0.438940,0.396510,0.323620,0.674254,0.674254
2025-02-05 05:00:30.290,0.0014,0.0001,0.0240,0.0000,0.0000,0.0000,28.2882,106.60249967,35.20446850,0.0060,0.438940,0.396510,0.323620,0.674254,0.674254
2025-02-05 05:00:30.300,0.0017,0.0001,0.0234,0.0000,0.0000,0.0000,28.2900,106.60249967,35.20446850,0.0060,0.438940,0.396510,0.323620,0.674254,0.674254
2025-02-05 05:00:30.310,0.0020,-0.0002,0.0231,0.0000,0.0000,0.0000,28.2763,106.60249967,35.20446850,0.0060,0.438940,0.396510,0.323620,0.674254,0.674254
2025-02-05 05:00:30.320,0.0020,0.0002,0.0232,0.0000,0.0000,0.0000,28.3001,106.60249967,35.20446850,0.0060,0.438940,0.396510,0.323620,0.674254,0.674254
2025-02-05 05:00:30.330,0.0017,-0.0005,0.0234,0.0000,0.0000,0.0000,28.2988,106.60249967,35.20446850,0.0060,0.438940,0.396510,0.323620,0.674254,0.674254
2025-02-05 05:00:30.340,0.0015,-0.0010,0.0230,0.0000,0.0000,0.0000,28.3081,106.60249967,35.20446849,0.0060,0.438940,0.396510,0.323620,0.674254,0.674254
2025-02-05 05:00:30.350,0.0016,-0.0008,0.0235,0.0000,0.0000,0.0000,28.2816,106.60249966,35.20446848,0.0060,0.438940,0.396510,0.323620,0.674254,0.674254
2025-02-05 05:00:30.360,0.0013,-0.0001,0.0239,0.0000,0.0000,0.0000,28.2689,106.60249965,35.20446846,0.0060,0.438940,0.396510,0.323620,0.674254,0.674254
2025-02-05 05:00:30.370,0.0017,-0.0002,0.0238,0.0000,0.0000,0.0000,28.2888,106.60249963,35.20446843,0.0060,0.438940,0.396510,0.323620,0.674254,0.674254
2025-02-05 05:00:30.380,0.0014,-0.0001,0.0236,0.0000,0.0000,0.0000,28.2810,106.60249959,35.20446835,0.0060,0.438940,0.396510,0.323620,0.674254,0.674254
2025-02-05 05:00:30.390,0.0002,0.0004,0.0234,0.0000,0.0000,0.0000,28.2932,106.60249953,35.20446823,0.0060,0.438940,0.396510,0.323620,0.674254,0.674254
2025-02-05 05:00:30.400,0.0004,-0.0002,0.0238,0.0000,0.0000,0.0000,28.3234,106.60249952,35.20446821,0.0060,0.438940,0.396510,0.323620,0.674254,0.674254
2025-02-05 05:00:30.410,0.0009,-0.0002,0.0238,0.0000,0.0000,0.0000,28.2465,106.60249951,35.20446819,0.0060,0.438940,0.396510,0.323620,0.674254,0.674254
2025-02-05 05:00:30.420,0.0015,0.0004,0.0246,0.0000,0.0000,0.0000,28.2420,106.60249951,35.20446818,0.0060,0.438940,0.396510,0.323620,0.674254,0.674254
2025-02-05 05:00:30.430,0.0011,0.0005,0.0242,0.0000,0.0000,0.0000,28.3015,106.60249950,35.20446817,0.0060,0.438940,0.396510,0.323620,0.674254,0.674254
2025-02-05 05:00:30.440,0.0008,-0.0001,0.0233,0.0000,0.0000,0.0000,28.3212,106.60249950,35.20446817,0.0060,0.438940,0.396510,0.323620,0.674254,0.674254
2025-02-05 05:00:30.450,0.0016,-0.0002,0.0242,0.0000,0.0000,0.0000,28.2815,106.60249950,35.20446817,0.0060,0.438940,0.396510,0.323620,0.674254,0.674254
2025-02-05 05:00:30.460,0.0015,0.0002,0.0247,0.0000,0.0000,0.0000,28.2930,106.60249950,35.20446817,0.0060,0.438940,0.396510,0.323620,0.674254,0.674254
2025-02-05 05:00:30.470,0.0010,0.0001,0.0252,0.0000,0.0000,0.0000,28.3634,106.60249950,35.20446817,0.0060,0.438940,0.396510,0.323620,0.674254,0.674254
2025-02-05 05:00:30.480,0.0011,-0.0004,0.0250,0.0000,0.0000,0.0000,28.3932,106.60249950,35.20446817,0.0060,0.438940,0.396510,0.323620,0.674254,0.674254
2025-02-05 05:00:30.490,0.0015,-0.0005,0.0243,0.0000,0.0000,0.0000,28.3398,106.60249950,35.20446817,0.0060,0.438940,0.396510,0.323620,0.674254,0.674254
2025-02-05 05:00:30.500,0.0016,-0.0004,0.0235,0.0000,0.0000,0.0000,28.3360,106.60249950,35.20446817,0.0060,0.438940,0.396510,0.323620,0.674254,0.674254
2025-02-05 05:00:30.510,0.0014,-0.0002,0.0238,0.0000,0.0000,0.0000,28.3631,106.60249950,35.20446817,0.0060,0.438940,0.396510,0.323620,0.674254,0.674254
2025-02-05 05:00:30.520,0.0014,-0.0004,0.0232,0.0000,0.0000,0.0000,28.3647,106.60249950,35.20446817,0.0060,0.438940,0.396510,0.323620,0.674254,0.674254
2025-02-05 05:00:30.530,0.0013,-0.0001,0.0231,0.0000,0.0000,0.0000,28.3617,106.60249950,35.20446817,0.0060,0.438940,0.396510,0.323620,0.674254,0.674254
2025-02-05 05:00:30.540,0.0014,0.0001,0.0233,0.0000,0.0000,0.0000,28.3324,106.60249950,35.20446817,0.0060,0.438940,0.396510,0.323620,0.674254,0.674254
2025-02-05 05:00:30.550,0.0016,0.0000,0.0236,0.0000,0.0000,0.0000,28.3435,106.60249950,35.20446817,0.0060,0.438940,0.396510,0.323620,0.674254,0.674254
2025-02-05 05:00:30.560,0.0014,-0.0000,0.0235,0.0000,0.0000,0.0000,28.3424,106.60249950,35.20446816,0.0060,0.438940,0.396510,0.323620,0.674254,0.674254
2025-02-05 05:00:30.570,0.0011,-0.0001,0.0232,0.0000,0.0000,0.0000,28.3604,106.60249950,35.20446816,0.0060,0.438940,0.396510,0.323620,0.674254,0.674254
2025-02-05 05:00:30.580,0.0011,0.0004,0.0235,0.0000,0.0000,0.0000,28.3278,106.60249950,35.20446815,0.0060,0.438940,0.396510,0.323620,0.674254,0.674254
2025-02-05 05:00:30.590,0.0013,0.0004,0.0239,0.0000,0.0000,0.0000,28.2960,106.60249950,35.20446814,0.0060,0.438940,0.396510,0.323620,0.674254,0.674254
2025-02-05 05:00:30.600,0.0012,0.0005,0.0238,0.0000,0.0000,0.0000,28.3084,106.60249950,35.20446808,0.0060,0.438940,0.396510,0.323620,0.674254,0.674254
2025-02-05 05:00:30.610,0.0010,0.0003,0.0239,0.0000,0.0000,0.0000,28.3098,106.60249950,35.20446803,0.0060,0.438940,0.396510,0.323620,0.674254,0.674254
2025-02-05 05:00:30.620,0.0012,-0.0001,0.0242,0.0000,0.0000,0.0000,28.2999,106.60249950,35.20446802,0.0060,0.438940,0.396510,0.323620,0.674254,0.674254
2025-02-05 05:00:30.630,0.0009,-0.0001,0.0238,0.0000,0.0000,0.0000,28.3279,106.60249950,35.20446801,0.0060,0.438940,0.396510,0.323620,0.674254,0.674254
2025-02-05 05:00:30.640,0.0011,-0.0000,0.0240,0.0000,0.0000,0.0000,28.2807,106.60249950,35.20446801,0.0060,0.438940,0.396510,0.323620,0.674254,0.674254
2025-02-05 05:00:30.650,0.0013,-0.0002,0.0237,0.0000,0.0000,0.0000,28.2711,106.60249950,35.20446800,0.0060,0.438940,0.396510,0.323620,0.674254,0.674254
2025-02-05 05:00:30.660,0.0012,-0.0003,0.0233,0.0000,0.0000,0.0000,28.2707,106.60249950,35.20446800,0.0060,0.438940,0.396510,0.323620,0.674254,0.674254
2025-02-05 05:00:30.670,0.0015,0.0004,0.0230,0.0000,0.0000,0.0000,28.2289,106.60249950,35.20446800,0.0060,0.438940,0.396510,0.323620,0.674254,0.674254
2025-02-05 05:00:30.680,0.0013,-0.0001,0.0238,0.0000,0.0000,0.0000,28.3132,106.60249950,35.20446800,0.0060,0.438940,0.396510,0.323620,0.674254,0.674254
2025-02-05 05:00:30.690,0.0011,0.0002,0.0234,0.0000,0.0000,0.0000,28.3211,106.60249950,35.20446800,0.0060,0.438940,0.396510,0.323620,0.674254,0.674254
2025-02-05 05:00:30.700,0.0011,0.0003,0.0236,0.0000,0.0000,0.0000,28.3318,106.60249950,35.20446800,0.0060,0.438940,0.396510,0.323620,0.674254,0.674254
2025-02-05 05:00:30.710,0.0008,0.0004,0.0234,0.0000,0.0000,0.0000,28.3487,106.60249950,35.20446800,0.0060,0.438940,0.396510,0.323620,0.674254,0.674254
2025-02-05 05:00:30.720,0.0004,0.0003,0.0230,0.0000,0.0000,0.0000,28.4008,106.60249950,35.20446800,0.0060,0.438940,0.396510,0.323620,0.674254,0.674254
2025-02-05 05:00:30.730,0.0010,0.0001,0.0235,0.0000,0.0000,0.0000,28.3730,106.60249950,35.20446800,0.0060,0.438940,0.396510,0.323620,0.674254,0.674254
2025-02-05 05:00:30.740,0.0015,0.0003,0.0230,0.0000,0.0000,0.0000,28.3839,106.60249950,35.20446800,0.0060,0.438940,0.396510,0.323620,0.674254,0.674254
2025-02-05 05:00:30.750,0.0012,0.0010,0.0228,0.0000,0.0000,0.0000,28.3681,106.60249949,35.20446800,0.0060,0.438940,0.396510,0.323620,0.674254,0.674254
2025-02-05 05:00:30.760,0.0005,-0.0000,0.0232,0.0000,0.0000,0.0000,28.3366,106.60249949,35.20446800,0.0060,0.438940,0.396510,0.323620,0.674254,0.674254
2025-02-05 05:00:30.770,0.0012,-0.0009,0.0232,0.0000,0.0000,0.0000,28.2959,106.60249948,35.20446800,0.0060,0.438940,0.396510,0.323620,0.674254,0.674254
2025-02-05 05:00:30.780,0.0016,-0.0006,0.0234,0.0000,0.0000,0.0000,28.3133,106.60249946,35.20446800,0.0060,0.438940,0.396510,0.323620,0.674254,0.674254
2025-02-05 05:00:30.790,0.0019,-0.0005,0.0237,0.0000,0.0000,0.0000,28.2975,106.60249941,35.20446800,0.0060,0.438940,0.396510,0.323620,0.674254,0.674254
2025-02-05 05:00:30.800,0.0020,-0.0003,0.0250,0.0000,0.0000,0.0000,28.2164,106.60249937,35.20446800,0.0060,0.438940,0.396510,0.323620,0.674254,0.674254
2025-02-05 05:00:30.810,0.0014,-0.0002,0.0243,0.0000,0.0000,0.0000,28.2314,106.60249935,35.20446800,0.0060,0.438940,0.396510,0.323620,0.674254,0.674254
2025-02-05 05:00:30.820,0.0014,-0.0001,0.0236,0.0000,0.0000,0.0000,28.2760,106.60249934,35.20446800,0.0060,0.438940,0.396510,0.323620,0.674254,0.674254
2025-02-05 05:00:30.830,0.0017,0.0001,0.0236,0.0000,0.0000,0.0000,28.3530,106.60249934,35.20446800,0.0060,0.438940,0.396510,0.323620,0.674254,0.674254
2025-02-05 05:00:30.840,0.0015,0.0005,0.0233,0.0000,0.0000,0.0000,28.3016,106.60249933,35.20446800,0.0060,0.438940,0.396510,0.323620,0.674254,0.674254
2025-02-05 05:00:30.850,0.0010,0.0010,0.0238,0.0000,0.0000,0.0000,28.3360,106.60249933,35.20446800,0.0060,0.438940,0.396510,0.323620,0.674254,0.674254
2025-02-05 05:00:30.860,0.0006,0.0018,0.0243,0.0000,0.0000,0.0000,28.3453,106.60249933,35.20446800,0.0060,0.438940,0.396510,0.323620,0.674254,0.674254
2025-02-05 05:00:30.870,0.0010,0.0010,0.0229,0.0000,0.0000,0.0000,28.3210,106.60249933,35.20446800,0.0060,0.438940,0.396510,0.323620,0.674254,0.674254
2025-02-05 05:00:30.880,0.0005,0.0013,0.0226,0.0000,0.0000,0.0000,28.3098,106.60249933,35.20446800,0.0060,0.438940,0.396510,0.323620,0.674254,0.674254
2025-02-05 05:00:30.890,0.0009,0.0004,0.0229,0.0000,0.0000,0.0000,28.3290,106.60249933,35.20446800,0.0060,0.438940,0.396510,0.323620,0.674254,0.674254
2025-02-05 05:00:30.900,0.0006,0.0000,0.0230,0.0000,0.0000,0.0000,28.3286,106.60249933,35.20446800,0.0060,0.438940,0.396510,0.323620,0.674254,0.674254
2025-02-05 05:00:30.910,0.0008,0.0001,0.0229,0.0000,0.0000,0.0000,28.3897,106.60249933,35.20446800,0.0150,0.483270,0.436160,0.355980,0.741962,0.708108
2025-02-05 05:00:30.920,0.0009,0.0003,0.0230,0.0000,0.0000,0.0000,28.3766,106.60249933,35.20446800,0.0250,0.487590,0.439960,0.358540,0.748238,0.721484
2025-02-05 05:00:30.930,0.0008,-0.0003,0.0235,0.0000,0.0000,0.0000,28.4157,106.60249933,35.20446800,0.0340,0.487700,0.440670,0.359140,0.749015,0.728367
2025-02-05 05:00:30.940,0.0012,-0.0005,0.0243,0.0000,0.0000,0.0000,28.3959,106.60249933,35.20446800,0.0430,0.488250,0.440740,0.359950,0.749803,0.732654
2025-02-05 05:00:30.950,0.0014,0.0001,0.0233,0.0000,0.0000,0.0000,28.4355,106.60249933,35.20446800,0.0530,0.487880,0.440830,0.359110,0.749212,0.735414
2025-02-05 05:00:30.960,0.0009,0.0001,0.0230,0.0000,0.0000,0.0000,28.4485,106.60249933,35.20446800,0.0620,0.487520,0.440680,0.359190,0.748927,0.737344
2025-02-05 05:00:30.970,0.0013,-0.0003,0.0232,0.0000,0.0000,0.0000,28.4470,106.60249933,35.20446800,0.0710,0.488020,0.440910,0.359450,0.749513,0.738865
2025-02-05 05:00:30.980,0.0017,-0.0011,0.0230,0.0000,0.0000,0.0000,28.4393,106.60249932,35.20446799,0.0800,0.487310,0.440770,0.359060,0.748781,0.739967
2025-02-05 05:00:30.990,0.0015,-0.0006,0.0227,0.0000,0.0000,0.0000,28.4258,106.60249931,35.20446798,0.0900,0.487780,0.440500,0.358850,0.748828,0.740853
2025-02-05 05:00:31.000,0.0012,-0.0007,0.0232,0.0000,0.0000,0.0000,28.3444,106.60249929,35.20446796,0.0990,0.487830,0.440980,0.359170,0.749296,0.748357
2025-02-05 05:00:31.010,0.0010,-0.0006,0.0228,0.0000,0.0000,0.0000,28.3348,106.60249923,35.20446789,0.1080,0.487400,0.440770,0.359110,0.748864,0.749048
2025-02-05 05:00:31.020,0.0007,-0.0015,0.0226,0.0000,0.0000,0.0000,28.3069,106.60249920,35.20446786,0.1180,0.488220,0.441250,0.359190,0.749718,0.749196
2025-02-05 05:00:31.030,0.0012,-0.0005,0.0235,0.0000,0.0000,0.0000,28.3743,106.60249919,35.20446785,0.1360,0.487730,0.440690,0.359330,0.749137,0.749141
2025-02-05 05:00:31.040,0.0006,-0.0003,0.0242,0.0000,0.0000,0.0000,28.3525,106.60249918,35.20446784,0.1450,0.487390,0.440580,0.359210,0.748793,0.749099
2025-02-05 05:00:31.050,0.0001,-0.0002,0.0232,0.0000,0.0000,0.0000,28.3751,106.60249917,35.20446783,0.1550,0.487470,0.440730,0.358700,0.748689,0.749075
2025-02-05 05:00:31.060,0.0007,-0.0002,0.0230,0.0000,0.0000,0.0000,28.3322,106.60249917,35.20446783,0.1640,0.487470,0.440580,0.359150,0.748817,0.749005
2025-02-05 05:00:31.070,0.0008,-0.0007,0.0221,0.0000,0.0000,0.0000,28.2469,106.60249917,35.20446783,0.1730,0.487690,0.440730,0.359450,0.749192,0.749046
2025-02-05 05:00:31.080,0.0015,-0.0003,0.0225,0.0000,0.0000,0.0000,28.2266,106.60249917,35.20446783,0.1830,0.488040,0.440670,0.358720,0.749035,0.749067
2025-02-05 05:00:31.090,0.0012,-0.0002,0.0227,0.0000,0.0000,0.0000,28.2691,106.60249917,35.20446783,0.1920,0.487640,0.440660,0.358900,0.748855,0.749023
2025-02-05 05:00:31.100,0.0017,0.0001,0.0230,0.0000,0.0000,0.0000,28.2955,106.60249917,35.20446783,0.2010,0.488140,0.440990,0.359170,0.749504,0.749087
2025-02-05 05:00:31.110,0.0010,0.0004,0.0235,0.0000,0.0000,0.0000,28.3244,106.60249917,35.20446783,0.2100,0.487330,0.441110,0.358860,0.748899,0.749005
2025-02-05 05:00:31.120,0.0011,0.0000,0.0244,0.0000,0.0000,0.0000,28.3495,106.60249917,35.20446783,0.2200,0.487460,0.441120,0.359340,0.749219,0.749014
2025-02-05 05:00:31.130,0.0007,0.0004,0.0240,0.0000,0.0000,0.0000,28.4225,106.60249917,35.20446783,0.2290,0.487260,0.441210,0.359220,0.749084,0.749009
2025-02-05 05:00:31.140,0.0013,0.0002,0.0250,0.0000,0.0000,0.0000,28.4609,106.60249917,35.20446783,0.2380,0.487130,0.440880,0.359200,0.748796,0.749009
2025-02-05 05:00:31.150,0.0014,0.0005,0.0242,0.0000,0.0000,0.0000,28.3847,106.60249917,35.20446783,0.2470,0.487550,0.441010,0.359370,0.749227,0.749063
2025-02-05 05:00:31.160,0.0013,0.0008,0.0241,0.0000,0.0000,0.0000,28.4283,106.60249917,35.20446782,0.2660,0.487720,0.440950,0.359040,0.749144,0.749110
2025-02-05 05:00:31.170,0.0018,0.0012,0.0253,0.0000,0.0000,0.0000,28.4233,106.60249917,35.20446781,0.2750,0.488040,0.440850,0.359190,0.749366,0.749143
2025-02-05 05:00:31.180,0.0026,-0.0002,0.0239,0.0000,0.0000,0.0000,28.2979,106.60249917,35.20446780,0.2850,0.487960,0.440680,0.358860,0.749056,0.749163
2025-02-05 05:00:31.190,0.0019,0.0004,0.0245,0.0000,0.0000,0.0000,28.3318,106.60249917,35.20446772,0.2940,0.487630,0.440740,0.359170,0.749025,0.749115
2025-02-05 05:00:31.200,0.0023,-0.0001,0.0260,0.0000,0.0000,0.0000,28.3079,106.60249917,35.20446769,0.3030,0.487600,0.440750,0.359200,0.749025,0.749128
2025-02-05 05:00:31.210,0.0013,-0.0003,0.0239,0.0000,0.0000,0.0000,28.3363,106.60249917,35.20446768,0.3120,0.487160,0.440830,0.359370,0.748868,0.749093
2025-02-05 05:00:31.220,0.0019,-0.0007,0.0228,0.0000,0.0000,0.0000,28.2889,106.60249917,35.20446768,0.3220,0.487550,0.440840,0.359050,0.748974,0.749082
2025-02-05 05:00:31.230,0.0019,0.0004,0.0222,0.0000,0.0000,0.0000,28.4044,106.60249917,35.20446767,0.3310,0.487270,0.440840,0.359020,0.748777,0.749080
2025-02-05 05:00:31.240,0.0016,0.0004,0.0221,0.0000,0.0000,0.0000,28.3746,106.60249917,35.20446767,0.3400,0.487450,0.440930,0.359350,0.749106,0.749068
2025-02-05 05:00:31.250,0.0018,0.0008,0.0223,0.0000,0.0000,0.0000,28.5050,106.60249917,35.20446767,0.3500,0.488230,0.441100,0.358960,0.749527,0.749087
2025-02-05 05:00:31.260,0.0017,-0.0002,0.0234,0.0000,0.0000,0.0000,28.3797,106.60249917,35.20446767,0.3590,0.487770,0.441200,0.359520,0.749554,0.749128
2025-02-05 05:00:31.270,0.0008,0.0010,0.0233,0.0000,0.0000,0.0000,28.4046,106.60249917,35.20446767,0.3680,0.487830,0.441300,0.359230,0.749513,0.749142
2025-02-05 05:00:31.280,0.0009,0.0001,0.0219,0.0000,0.0000,0.0000,28.2623,106.60249917,35.20446767,0.3770,0.488050,0.441220,0.359370,0.749676,0.749204
2025-02-05 05:00:31.290,0.0017,0.0003,0.0216,0.0000,0.0000,0.0000,28.3144,106.60249917,35.20446767,0.3960,0.487890,0.440750,0.359690,0.749449,0.749289
2025-02-05 05:00:31.300,0.0018,-0.0002,0.0239,0.0000,0.0000,0.0000,28.2403,106.60249917,35.20446767,0.4050,0.488270,0.440500,0.359760,0.749583,0.749361
2025-02-05 05:00:31.310,0.0008,-0.0003,0.0230,0.0000,0.0000,0.0000,28.3081,106.60249917,35.20446767,0.4150,0.488420,0.440470,0.359680,0.749625,0.749426
2025-02-05 05:00:31.320,0.0014,0.0004,0.0233,0.0000,0.0000,0.0000,28.3254,106.60249917,35.20446767,0.4240,0.488540,0.440810,0.359080,0.749615,0.749510
2025-02-05 05:00:31.330,0.0003,-0.0001,0.0229,0.0000,0.0000,0.0000,28.3267,106.60249916,35.20446767,0.4330,0.488230,0.440250,0.359190,0.749137,0.749513
2025-02-05 05:00:31.340,0.0017,-0.0011,0.0253,0.0000,0.0000,0.0000,28.3295,106.60249915,35.20446766,0.4420,0.488200,0.440530,0.359290,0.749330,0.749493
2025-02-05 05:00:31.350,0.0018,-0.0004,0.0237,0.0000,0.0000,0.0000,28.2737,106.60249913,35.20446765,0.4520,0.487120,0.440560,0.359550,0.748769,0.749415
2025-02-05 05:00:31.360,0.0014,-0.0005,0.0237,0.0000,0.0000,0.0000,28.3805,106.60249911,35.20446764,0.4610,0.486790,0.440650,0.358980,0.748334,0.749297
2025-02-05 05:00:31.370,0.0009,-0.0007,0.0234,0.0000,0.0000,0.0000,28.3308,106.60249894,35.20446756,0.4700,0.487520,0.440990,0.359010,0.749023,0.749232
2025-02-05 05:00:31.380,0.0004,-0.0003,0.0248,0.0000,0.0000,0.0000,28.3135,106.60249888,35.20446752,0.4800,0.487700,0.440520,0.359350,0.749027,0.749189
2025-02-05 05:00:31.390,0.0005,-0.0003,0.0234,0.0000,0.0000,0.0000,28.2101,106.60249886,35.20446751,0.4890,0.487820,0.440230,0.359390,0.748954,0.749140
2025-02-05 05:00:31.400,0.0016,0.0000,0.0219,0.0000,0.0000,0.0000,28.1770,106.60249884,35.20446751,0.4980,0.487830,0.440700,0.359220,0.749155,0.749097
2025-02-05 05:00:31.410,0.0010,0.0016,0.0237,0.0000,0.0000,0.0000,28.2573,106.60249883,35.20446750,0.5070,0.487830,0.440750,0.359200,0.749175,0.749052
2025-02-05 05:00:31.420,0.0004,-0.0002,0.0236,0.0000,0.0000,0.0000,28.2511,106.60249883,35.20446750,0.5260,0.487580,0.441030,0.358720,0.748947,0.748952
2025-02-05 05:00:31.430,0.0022,-0.0003,0.0246,0.0000,0.0000,0.0000,28.0885,106.60249883,35.20446750,0.5350,0.487380,0.440950,0.359490,0.749139,0.748933
2025-02-05 05:00:31.440,0.0016,0.0010,0.0251,0.0000,0.0000,0.0000,28.1605,106.60249883,35.20446750,0.5450,0.487680,0.441360,0.359230,0.749451,0.749001
2025-02-05 05:00:31.450,0.0012,0.0004,0.0254,0.0000,0.0000,0.0000,28.2610,106.60249883,35.20446750,0.5540,0.487170,0.441400,0.359120,0.749090,0.749077
2025-02-05 05:00:31.460,0.0012,0.0000,0.0242,0.0000,0.0000,0.0000,28.2712,106.60249883,35.20446750,0.5630,0.487880,0.441070,0.358770,0.749190,0.749093
2025-02-05 05:00:31.470,0.0016,-0.0007,0.0251,0.0000,0.0000,0.0000,28.2366,106.60249883,35.20446750,0.5720,0.487620,0.441280,0.359160,0.749331,0.749124
2025-02-05 05:00:31.480,0.0029,-0.0010,0.0250,0.0000,0.0000,0.0000,28.4089,106.60249883,35.20446750,0.5820,0.487380,0.441050,0.359030,0.748977,0.749126
2025-02-05 05:00:31.490,0.0026,0.0009,0.0225,0.0000,0.0000,0.0000,28.4170,106.60249883,35.20446750,0.5910,0.486930,0.440530,0.359180,0.748450,0.749056
2025-02-05 05:00:31.500,0.0026,0.0000,0.0227,0.0000,0.0000,0.0000,28.2097,106.60249883,35.20446750,0.6000,0.486770,0.441400,0.359370,0.748950,0.749033
2025-02-05 05:00:31.510,0.0012,-0.0000,0.0256,0.0000,0.0000,0.0000,28.2446,106.60249883,35.20446750,0.6090,0.487300,0.441070,0.359300,0.749066,0.749059
2025-02-05 05:00:31.520,0.0014,-0.0000,0.0253,0.0000,0.0000,0.0000,28.4105,106.60249883,35.20446750,0.6190,0.487240,0.441120,0.359040,0.748932,0.749058
2025-02-05 05:00:31.530,0.0004,0.0000,0.0243,0.0000,0.0000,0.0000,28.3321,106.60249883,35.20446750,0.6280,0.487340,0.441210,0.359020,0.749041,0.749048
2025-02-05 05:00:31.540,0.0009,-0.0003,0.0235,0.0000,0.0000,0.0000,28.1727,106.60249883,35.20446750,0.6470,0.487300,0.440690,0.359440,0.748910,0.749010
2025-02-05 05:00:31.550,-0.0004,0.0003,0.0225,0.0000,0.0000,0.0000,28.4013,106.60249883,35.20446750,0.6560,0.487030,0.440910,0.359230,0.748763,0.748967
2025-02-05 05:00:31.560,0.0012,0.0004,0.0225,0.0000,0.0000,0.0000,28.2922,106.60249883,35.20446750,0.6650,0.487000,0.440770,0.359200,0.748647,0.748899
2025-02-05 05:00:31.570,0.0016,0.0000,0.0250,0.0000,0.0000,0.0000,28.3244,106.60249883,35.20446750,0.6740,0.487210,0.441250,0.359370,0.749147,0.748916
2025-02-05 05:00:31.580,0.0003,0.0006,0.0234,0.0000,0.0000,0.0000,28.3195,106.60249883,35.20446750,0.6840,0.487130,0.440970,0.359050,0.748777,0.748948
2025-02-05 05:00:31.590,0.0007,-0.0006,0.0226,0.0000,0.0000,0.0000,28.2136,106.60249883,35.20446750,0.6930,0.487120,0.441020,0.359020,0.748786,0.748932
2025-02-05 05:00:31.600,0.0019,-0.0002,0.0232,0.0000,0.0000,0.0000,28.2255,106.60249883,35.20446750,0.7020,0.487440,0.440860,0.358760,0.748775,0.748903
2025-02-05 05:00:31.610,0.0018,-0.0008,0.0228,0.0000,0.0000,0.0000,28.2791,106.60249883,35.20446750,0.7120,0.487260,0.440680,0.358910,0.748624,0.748872
2025-02-05 05:00:31.620,0.0011,-0.0005,0.0247,0.0000,0.0000,0.0000,28.4051,106.60249883,35.20446750,0.7210,0.487450,0.440990,0.359170,0.749055,0.748873
2025-02-05 05:00:31.630,0.0014,-0.0005,0.0226,0.0000,0.0000,0.0000,28.3234,106.60249883,35.20446750,0.7300,0.487580,0.440860,0.359370,0.749159,0.748864
2025-02-05 05:00:31.640,0.0011,-0.0007,0.0239,0.0000,0.0000,0.0000,28.2259,106.60249883,35.20446750,0.7390,0.487160,0.440510,0.359130,0.748564,0.748830
2025-02-05 05:00:31.650,0.0010,-0.0002,0.0242,0.0000,0.0000,0.0000,28.2013,106.60249883,35.20446750,0.7490,0.487980,0.440810,0.358690,0.749064,0.748860
2025-02-05 05:00:31.660,0.0000,-0.0015,0.0225,0.0000,0.0000,0.0000,28.3400,106.60249883,35.20446750,0.7580,0.487530,0.441090,0.358730,0.748955,0.748890
2025-02-05 05:00:31.670,0.0010,-0.0005,0.0244,0.0000,0.0000,0.0000,28.4700,106.60249883,35.20446750,0.7670,0.488020,0.440370,0.358820,0.748893,0.748865
2025-02-05 05:00:31.680,0.0010,0.0015,0.0234,0.0000,0.0000,0.0000,28.2100,106.60249883,35.20446750,0.7860,0.487160,0.440570,0.358840,0.748460,0.748832
2025-02-05 05:00:31.690,0.0020,0.0000,0.0249,0.0000,0.0000,0.0000,28.5900,106.60249883,35.20446750,0.7950,0.487440,0.440480,0.358910,0.748623,0.748817
2025-02-05 05:00:31.700,0.0010,0.0024,0.0249,0.0000,0.0000,0.0000,28.2800,106.60249883,35.20446750,0.8040,0.487800,0.440220,0.359170,0.748829,0.748837
2025-02-05 05:00:31.710,0.0020,0.0000,0.0220,0.0000,0.0000,0.0000,28.0900,106.60249883,35.20446750,0.8140,0.487620,0.440450,0.359200,0.748862,0.748818
2025-02-05 05:00:31.720,0.0005,0.0010,0.0269,0.0000,0.0000,0.0000,28.5300,106.60249883,35.20446750,0.8230,0.486950,0.440800,0.359200,0.748632,0.748765
2025-02-05 05:00:31.730,0.0010,0.0005,0.0234,0.0000,0.0000,0.0000,28.1500,106.60249883,35.20446750,0.8320,0.486990,0.440250,0.359370,0.748416,0.748750
2025-02-05 05:00:31.740,0.0010,0.0010,0.0234,0.0000,0.0000,0.0000,28.0900,106.60249883,35.20446750,0.8410,0.487100,0.440950,0.359390,0.748909,0.748735
2025-02-05 05:00:31.750,0.0000,0.0000,0.0249,0.0000,0.0000,0.0000,28.3400,106.60249883,35.20446750,0.8510,0.487650,0.440520,0.359810,0.749215,0.748761
2025-02-05 05:00:31.760,0.0005,-0.0010,0.0220,0.0000,0.0000,0.0000,28.3400,106.60249883,35.20446750,0.8600,0.487710,0.440640,0.359260,0.749061,0.748778
2025-02-05 05:00:31.770,0.0018,0.0010,0.0210,0.0000,0.0000,0.0000,28.4107,106.60249881,35.20446747,0.8690,0.487710,0.440570,0.359540,0.749154,0.748816
2025-02-05 05:00:31.780,0.0029,0.0005,0.0249,0.0000,0.0000,0.0000,28.2100,106.60249867,35.20446733,0.8790,0.487280,0.440480,0.359150,0.748634,0.748834
2025-02-05 05:00:31.790,0.0025,-0.0013,0.0249,0.0000,0.0000,0.0000,28.2029,106.60249868,35.20446735,0.8880,0.487350,0.440890,0.358780,0.748744,0.748846
2025-02-05 05:00:31.800,0.0005,-0.0005,0.0244,0.0000,0.0000,0.0000,28.2800,106.60249867,35.20446733,0.8970,0.488110,0.440260,0.358820,0.748887,0.748851
2025-02-05 05:00:31.810,0.0020,0.0010,0.0264,0.0000,0.0000,0.0000,28.3400,106.60249867,35.20446733,0.9160,0.487550,0.440650,0.358740,0.748713,0.748884
2025-02-05 05:00:31.820,0.0000,-0.0010,0.0249,0.0000,0.0000,0.0000,28.6500,106.60249867,35.20446733,0.9250,0.487910,0.440490,0.358990,0.748974,0.748939
2025-02-05 05:00:31.830,0.0028,0.0001,0.0223,0.0000,0.0000,0.0000,28.2919,106.60249867,35.20446733,0.9340,0.487200,0.440720,0.359180,0.748738,0.748922
2025-02-05 05:00:31.840,0.0020,-0.0029,0.0244,0.0000,0.0000,0.0000,28.3400,106.60249867,35.20446733,0.9440,0.487230,0.440250,0.358780,0.748289,0.748830
2025-02-05 05:00:31.850,0.0029,-0.0010,0.0273,0.0000,0.0000,0.0000,28.3400,106.60249867,35.20446733,0.9530,0.487670,0.440620,0.358910,0.748855,0.748809
2025-02-05 05:00:31.860,0.0024,0.0020,0.0278,0.0000,0.0000,0.0000,28.3400,106.60249867,35.20446733,0.9620,0.487820,0.440570,0.358500,0.748727,0.748766
2025-02-05 05:00:31.870,0.0015,-0.0010,0.0254,0.0000,0.0000,0.0000,28.3400,106.60249867,35.20446733,0.9710,0.486970,0.440900,0.358540,0.748387,0.748742
2025-02-05 05:00:31.880,-0.0005,0.0010,0.0220,0.0000,0.0000,0.0000,28.2100,106.60249867,35.20446733,0.9810,0.486890,0.440600,0.358800,0.748283,0.748696
2025-02-05 05:00:31.890,0.0020,0.0015,0.0254,0.0000,0.0000,0.0000,28.3400,106.60249867,35.20446733,0.9900,0.487420,0.440740,0.358910,0.748763,0.748683
2025-02-05 05:00:31.900,0.0010,0.0000,0.0249,0.0000,0.0000,0.0000,28.3400,106.60249867,35.20446733,0.9990,0.487250,0.440500,0.359170,0.748636,0.748637
2025-02-05 05:00:31.910,0.0000,0.0000,0.0249,0.0000,0.0000,0.0000,28.2800,106.60249867,35.20446733,1.0090,0.487450,0.440140,0.359200,0.748569,0.748622
2025-02-05 05:00:31.920,0.0002,0.0002,0.0259,0.0000,0.0000,0.0000,28.4084,106.60249867,35.20446733,1.0180,0.486610,0.440270,0.359200,0.748099,0.748535
2025-02-05 05:00:31.930,0.0002,0.0009,0.0236,0.0000,0.0000,0.0000,28.2465,106.60249867,35.20446733,1.0360,0.486860,0.440690,0.359560,0.748681,0.748570
2025-02-05 05:00:31.940,0.0015,0.0009,0.0267,0.0000,0.0000,0.0000,28.2425,106.60249867,35.20446733,1.0460,0.487090,0.440410,0.359410,0.748594,0.748544
2025-02-05 05:00:31.950,0.0002,0.0007,0.0279,0.0000,0.0000,0.0000,28.2932,106.60249867,35.20446733,1.0550,0.487330,0.440300,0.359640,0.748796,0.748551
2025-02-05 05:00:31.960,0.0005,0.0018,0.0244,0.0000,0.0000,0.0000,28.4128,106.60249866,35.20446732,1.0640,0.487460,0.440710,0.359580,0.749093,0.748622
2025-02-05 05:00:31.970,0.0002,0.0003,0.0241,0.0000,0.0000,0.0000,28.3283,106.60249866,35.20446732,1.0740,0.488120,0.440910,0.359660,0.749679,0.748761
2025-02-05 05:00:31.980,0.0005,0.0012,0.0226,0.0000,0.0000,0.0000,28.3195,106.60249865,35.20446732,1.0830,0.487760,0.440600,0.359250,0.749065,0.748792
2025-02-05 05:00:31.990,0.0010,0.0000,0.0249,0.0000,0.0000,0.0000,28.0900,106.60249867,35.20446733,1.0920,0.487070,0.440740,0.359290,0.748718,0.748800
2025-02-05 05:00:32.000,-0.0004,0.0002,0.0264,0.0000,0.0000,0.0000,28.2848,106.60249852,35.20446719,1.1010,0.487760,0.440250,0.359210,0.748840,0.748827
2025-02-05 05:00:32.010,0.0012,0.0007,0.0234,0.0000,0.0000,0.0000,28.3262,106.60249851,35.20446718,1.1110,0.488040,0.440280,0.359290,0.749079,0.748925
2025-02-05 05:00:32.020,0.0004,0.0001,0.0249,0.0000,0.0000,0.0000,28.2204,106.60249851,35.20446718,1.1200,0.486990,0.440120,0.359290,0.748301,0.748885
2025-02-05 05:00:32.030,0.0017,-0.0003,0.0203,0.0000,0.0000,0.0000,28.4320,106.60249850,35.20446717,1.1290,0.487100,0.440600,0.359040,0.748535,0.748870
2025-02-05 05:00:32.040,0.0015,0.0000,0.0244,0.0000,0.0000,0.0000,28.5300,106.60249850,35.20446717,1.1390,0.487760,0.440650,0.359190,0.749066,0.748917
2025-02-05 05:00:32.050,0.0016,0.0000,0.0221,0.0000,0.0000,0.0000,28.4455,106.60249850,35.20446717,1.1480,0.487180,0.440570,0.359030,0.748565,0.748894
2025-02-05 05:00:32.060,0.0028,0.0003,0.0244,0.0000,0.0000,0.0000,28.4339,106.60249850,35.20446717,1.1570,0.487230,0.440230,0.359190,0.748474,0.748832
2025-02-05 05:00:32.070,0.0021,0.0000,0.0213,0.0000,0.0000,0.0000,28.2669,106.60249850,35.20446717,1.1760,0.487790,0.440340,0.359130,0.748874,0.748742
2025-02-05 05:00:32.080,0.0006,0.0004,0.0220,0.0000,0.0000,0.0000,28.3388,106.60249850,35.20446717,1.1850,0.487720,0.440710,0.359450,0.749200,0.748790
2025-02-05 05:00:32.090,0.0015,0.0009,0.0239,0.0000,0.0000,0.0000,28.3317,106.60249850,35.20446717,1.1940,0.487930,0.440250,0.359310,0.748999,0.748806
2025-02-05 05:00:32.100,0.0020,-0.0014,0.0230,0.0000,0.0000,0.0000,28.2165,106.60249850,35.20446717,1.2030,0.487630,0.440450,0.359210,0.748873,0.748785
2025-02-05 05:00:32.110,0.0007,-0.0009,0.0234,0.0000,0.0000,0.0000,28.4485,106.60249850,35.20446717,1.2130,0.487490,0.440300,0.359290,0.748732,0.748828
2025-02-05 05:00:32.120,0.0007,-0.0011,0.0243,0.0000,0.0000,0.0000,28.2963,106.60249850,35.20446717,1.2220,0.487050,0.440290,0.359290,0.748440,0.748819
2025-02-05 05:00:32.130,0.0013,0.0002,0.0229,0.0000,0.0000,0.0000,28.3217,106.60249850,35.20446717,1.2310,0.487330,0.440370,0.359210,0.748631,0.748775
2025-02-05 05:00:32.140,0.0003,-0.0002,0.0231,0.0000,0.0000,0.0000,28.2078,106.60249850,35.20446717,1.2410,0.487030,0.440210,0.359200,0.748337,0.748752
2025-02-05 05:00:32.150,0.0010,-0.0009,0.0234,0.0000,0.0000,0.0000,28.3254,106.60249850,35.20446717,1.2500,0.487750,0.440610,0.359450,0.749161,0.748821
2025-02-05 05:00:32.160,0.0018,0.0007,0.0235,0.0000,0.0000,0.0000,28.3313,106.60249850,35.20446717,1.2590,0.488150,0.440490,0.359230,0.749245,0.748849
2025-02-05 05:00:32.170,0.0004,0.0008,0.0238,0.0000,0.0000,0.0000,28.2976,106.60249850,35.20446717,1.2680,0.488080,0.440970,0.358950,0.749348,0.748896
2025-02-05 05:00:32.180,0.0012,0.0006,0.0239,0.0000,0.0000,0.0000,28.3156,106.60249849,35.20446716,1.2780,0.487860,0.440770,0.358920,0.749072,0.748884
2025-02-05 05:00:32.190,-0.0002,0.0000,0.0231,0.0000,0.0000,0.0000,28.4086,106.60249849,35.20446716,1.2870,0.487620,0.440920,0.358840,0.748966,0.748880
2025-02-05 05:00:32.200,0.0007,-0.0005,0.0232,0.0000,0.0000,0.0000,28.4070,106.60249848,35.20446715,1.3060,0.487260,0.441060,0.358850,0.748819,0.748923
2025-02-05 05:00:32.210,0.0017,0.0007,0.0252,0.0000,0.0000,0.0000,28.3393,106.60249847,35.20446714,1.3150,0.488320,0.441200,0.359170,0.749745,0.749053
2025-02-05 05:00:32.220,0.0016,0.0001,0.0239,0.0000,0.0000,0.0000,28.3170,106.60249835,35.20446702,1.3240,0.487560,0.440630,0.359200,0.748929,0.749083
2025-02-05 05:00:32.230,0.0006,0.0002,0.0235,0.0000,0.0000,0.0000,28.1776,106.60249835,35.20446702,1.3330,0.487590,0.440070,0.359290,0.748662,0.749116
2025-02-05 05:00:32.240,0.0012,0.0006,0.0234,0.0000,0.0000,0.0000,28.3214,106.60249834,35.20446701,1.3430,0.487920,0.440350,0.359210,0.749003,0.749100
2025-02-05 05:00:32.250,0.0017,0.0004,0.0230,0.0000,0.0000,0.0000,28.3832,106.60249833,35.20446700,1.3520,0.487300,0.440210,0.358950,0.748392,0.749015
2025-02-05 05:00:32.260,0.0017,-0.0002,0.0256,0.0000,0.0000,0.0000,28.3176,106.60249833,35.20446700,1.3610,0.487780,0.440110,0.359350,0.748838,0.748964
2025-02-05 05:00:32.270,0.0009,0.0008,0.0229,0.0000,0.0000,0.0000,28.1812,106.60249833,35.20446700,1.3700,0.487940,0.439930,0.359050,0.748693,0.748926
2025-02-05 05:00:32.280,0.0011,-0.0005,0.0232,0.0000,0.0000,0.0000,28.3214,106.60249833,35.20446700,1.3800,0.487950,0.440330,0.359190,0.749001,0.748929
2025-02-05 05:00:32.290,0.0022,-0.0005,0.0227,0.0000,0.0000,0.0000,28.4358,106.60249833,35.20446700,1.3890,0.488280,0.440120,0.359710,0.749343,0.748942
2025-02-05 05:00:32.300,0.0006,-0.0009,0.0230,0.0000,0.0000,0.0000,28.5033,106.60249833,35.20446700,1.3980,0.488530,0.440520,0.359250,0.749520,0.749013
2025-02-05 05:00:32.310,0.0018,-0.0008,0.0238,0.0000,0.0000,0.0000,28.3282,106.60249833,35.20446700,1.4080,0.488550,0.440810,0.359460,0.749804,0.749019
2025-02-05 05:00:32.320,0.0012,0.0005,0.0241,0.0000,0.0000,0.0000,28.4417,106.60249833,35.20446700,1.4260,0.488120,0.440630,0.359310,0.749346,0.749123
2025-02-05 05:00:32.330,0.0021,0.0007,0.0237,0.0000,0.0000,0.0000,28.4456,106.60249833,35.20446700,1.4350,0.487760,0.440650,0.359380,0.749157,0.749138
2025-02-05 05:00:32.340,0.0013,0.0000,0.0258,0.0000,0.0000,0.0000,28.4413,106.60249833,35.20446700,1.4450,0.487400,0.440990,0.359220,0.749046,0.749204
2025-02-05 05:00:32.350,0.0013,-0.0006,0.0244,0.0000,0.0000,0.0000,28.4212,106.60249833,35.20446700,1.4540,0.487900,0.440940,0.359540,0.749496,0.749270
2025-02-05 05:00:32.360,0.0019,0.0003,0.0256,0.0000,0.0000,0.0000,28.3543,106.60249832,35.20446700,1.4630,0.488270,0.440600,0.359240,0.749393,0.749340
2025-02-05 05:00:32.370,0.0018,0.0013,0.0248,0.0000,0.0000,0.0000,28.2871,106.60249832,35.20446700,1.4730,0.487990,0.440900,0.359210,0.749372,0.749377
2025-02-05 05:00:32.380,0.0007,0.0001,0.0264,0.0000,0.0000,0.0000,28.2965,106.60249831,35.20446700,1.4820,0.487740,0.440770,0.359030,0.749047,0.749347
2025-02-05 05:00:32.390,0.0012,0.0009,0.0251,0.0000,0.0000,0.0000,28.4148,106.60249829,35.20446700,1.4910,0.488040,0.440500,0.359350,0.749237,0.749319
2025-02-05 05:00:32.400,0.0010,0.0000,0.0244,0.0000,0.0000,0.0000,28.4700,106.60249817,35.20446700,1.5000,0.487750,0.440730,0.359050,0.749039,0.749242
2025-02-05 05:00:32.410,0.0012,0.0007,0.0247,0.0000,0.0000,0.0000,28.4589,106.60249819,35.20446700,1.5100,0.487930,0.440580,0.358770,0.748934,0.749207
2025-02-05 05:00:32.420,0.0024,0.0002,0.0253,0.0000,0.0000,0.0000,28.3279,106.60249818,35.20446700,1.5190,0.488380,0.440230,0.358910,0.749089,0.749181
2025-02-05 05:00:32.430,0.0020,0.0002,0.0253,0.0000,0.0000,0.0000,28.2428,106.60249817,35.20446700,1.5280,0.488540,0.440530,0.358580,0.749211,0.749186
2025-02-05 05:00:32.440,0.0025,0.0002,0.0249,0.0000,0.0000,0.0000,28.2426,106.60249817,35.20446700,1.5380,0.488340,0.440650,0.358470,0.749099,0.749192
2025-02-05 05:00:32.450,0.0022,0.0010,0.0246,0.0000,0.0000,0.0000,28.2491,106.60249817,35.20446700,1.5470,0.488640,0.440490,0.358620,0.749272,0.749169
2025-02-05 05:00:32.460,0.0016,0.0001,0.0235,0.0000,0.0000,0.0000,28.3380,106.60249817,35.20446700,1.5650,0.488430,0.441070,0.358670,0.749500,0.749177
2025-02-05 05:00:32.470,0.0014,0.0001,0.0246,0.0000,0.0000,0.0000,28.3754,106.60249817,35.20446700,1.5750,0.487890,0.440870,0.358640,0.749016,0.749174
2025-02-05 05:00:32.480,0.0024,-0.0001,0.0240,0.0000,0.0000,0.0000,28.3359,106.60249817,35.20446700,1.5840,0.488270,0.440850,0.359400,0.749616,0.749212
2025-02-05 05:00:32.490,0.0011,-0.0002,0.0235,0.0000,0.0000,0.0000,28.4429,106.60249817,35.20446700,1.5930,0.487660,0.440590,0.359220,0.748980,0.749206
2025-02-05 05:00:32.500,0.0019,-0.0000,0.0231,0.0000,0.0000,0.0000,28.3839,106.60249817,35.20446700,1.6030,0.487930,0.440400,0.359370,0.749116,0.749224
2025-02-05 05:00:32.510,0.0009,-0.0004,0.0233,0.0000,0.0000,0.0000,28.4172,106.60249817,35.20446700,1.6120,0.487840,0.440380,0.359640,0.749175,0.749233
2025-02-05 05:00:32.520,0.0013,0.0003,0.0235,0.0000,0.0000,0.0000,28.3248,106.60249817,35.20446700,1.6210,0.488270,0.440880,0.359750,0.749802,0.749292
2025-02-05 05:00:32.530,0.0010,-0.0005,0.0246,0.0000,0.0000,0.0000,28.2684,106.60249817,35.20446700,1.6300,0.488200,0.440350,0.359430,0.749291,0.749311
2025-02-05 05:00:32.540,0.0011,0.0001,0.0234,0.0000,0.0000,0.0000,28.3019,106.60249816,35.20446699,1.6400,0.488300,0.440460,0.359390,0.749402,0.749324
2025-02-05 05:00:32.550,0.0006,0.0008,0.0230,0.0000,0.0000,0.0000,28.2851,106.60249815,35.20446698,1.6490,0.487670,0.440470,0.359140,0.748877,0.749278
2025-02-05 05:00:32.560,0.0008,0.0001,0.0227,0.0000,0.0000,0.0000,28.3385,106.60249814,35.20446697,1.6580,0.487280,0.440560,0.359200,0.748705,0.749198
2025-02-05 05:00:32.570,0.0007,-0.0010,0.0227,0.0000,0.0000,0.0000,28.2597,106.60249811,35.20446694,1.6680,0.487670,0.440650,0.359030,0.748931,0.749190
2025-02-05 05:00:32.580,0.0011,0.0004,0.0246,0.0000,0.0000,0.0000,28.2711,106.60249802,35.20446685,1.6770,0.488030,0.440490,0.359520,0.749306,0.749158
2025-02-05 05:00:32.590,0.0015,-0.0010,0.0234,0.0000,0.0000,0.0000,28.2375,106.60249802,35.20446685,1.6950,0.487730,0.440510,0.359820,0.749266,0.749217
2025-02-05 05:00:32.600,0.0014,-0.0007,0.0233,0.0000,0.0000,0.0000,28.3016,106.60249801,35.20446684,1.7050,0.487820,0.440730,0.359600,0.749349,0.749234
2025-02-05 05:00:32.610,0.0013,-0.0004,0.0234,0.0000,0.0000,0.0000,28.3005,106.60249801,35.20446684,1.7140,0.487830,0.440330,0.359660,0.749149,0.749169
2025-02-05 05:00:32.620,0.0016,-0.0014,0.0230,0.0000,0.0000,0.0000,28.2842,106.60249800,35.20446683,1.7230,0.487510,0.440960,0.359420,0.749196,0.749159
2025-02-05 05:00:32.630,0.0012,-0.0002,0.0235,0.0000,0.0000,0.0000,28.1504,106.60249800,35.20446683,1.7330,0.486940,0.441110,0.359220,0.748817,0.749101
2025-02-05 05:00:32.640,0.0013,-0.0004,0.0252,0.0000,0.0000,0.0000,28.2555,106.60249800,35.20446683,1.7420,0.487530,0.440790,0.359290,0.749046,0.749117
2025-02-05 05:00:32.650,0.0017,-0.0006,0.0246,0.0000,0.0000,0.0000,28.3118,106.60249800,35.20446683,1.7510,0.487270,0.440250,0.359550,0.748684,0.749115
2025-02-05 05:00:32.660,0.0014,-0.0009,0.0239,0.0000,0.0000,0.0000,28.3195,106.60249800,35.20446683,1.7600,0.488100,0.440700,0.359410,0.749422,0.749165
2025-02-05 05:00:32.670,0.0016,-0.0008,0.0265,0.0000,0.0000,0.0000,28.3097,106.60249800,35.20446683,1.7700,0.487860,0.440410,0.359220,0.749004,0.749134
2025-02-05 05:00:32.680,0.0009,-0.0006,0.0255,0.0000,0.0000,0.0000,28.2983,106.60249800,35.20446683,1.7790,0.487190,0.440470,0.359620,0.748795,0.749073
2025-02-05 05:00:32.690,0.0009,-0.0008,0.0248,0.0000,0.0000,0.0000,28.3959,106.60249800,35.20446683,1.7880,0.487660,0.440810,0.359330,0.749162,0.749063
2025-02-05 05:00:32.700,0.0009,-0.0010,0.0244,0.0000,0.0000,0.0000,28.3987,106.60249800,35.20446683,1.7980,0.487820,0.440920,0.359800,0.749556,0.749083
2025-02-05 05:00:32.710,0.0014,-0.0007,0.0236,0.0000,0.0000,0.0000,28.3674,106.60249800,35.20446683,1.8160,0.487930,0.440430,0.359740,0.749311,0.749117
2025-02-05 05:00:32.720,0.0014,-0.0006,0.0232,0.0000,0.0000,0.0000,28.3786,106.60249800,35.20446683,1.8250,0.487840,0.440050,0.359760,0.749039,0.749139
2025-02-05 05:00:32.730,0.0007,-0.0004,0.0233,0.0000,0.0000,0.0000,28.3945,106.60249800,35.20446683,1.8350,0.487510,0.439760,0.359430,0.748495,0.749084
2025-02-05 05:00:32.740,0.0003,-0.0003,0.0238,0.0000,0.0000,0.0000,28.3483,106.60249800,35.20446683,1.8440,0.488130,0.440480,0.359560,0.749384,0.749154
2025-02-05 05:00:32.750,0.0006,0.0003,0.0240,0.0000,0.0000,0.0000,28.3456,106.60249799,35.20446683,1.8530,0.487760,0.440220,0.359070,0.748755,0.749087
2025-02-05 05:00:32.760,0.0008,0.0010,0.0248,0.0000,0.0000,0.0000,28.3545,106.60249798,35.20446682,1.8630,0.487500,0.440280,0.359100,0.748636,0.749050
2025-02-05 05:00:32.770,0.0007,0.0010,0.0252,0.0000,0.0000,0.0000,28.2752,106.60249796,35.20446681,1.8720,0.487690,0.441040,0.359190,0.749250,0.749096
2025-02-05 05:00:32.780,0.0010,-0.0000,0.0245,0.0000,0.0000,0.0000,28.2295,106.60249793,35.20446680,1.8810,0.487610,0.440530,0.359120,0.748864,0.749066
2025-02-05 05:00:32.790,0.0016,-0.0006,0.0243,0.0000,0.0000,0.0000,28.1660,106.60249787,35.20446677,1.8900,0.487810,0.440900,0.359360,0.749327,0.749043
2025-02-05 05:00:32.800,0.0022,-0.0003,0.0246,0.0000,0.0000,0.0000,28.0903,106.60249773,35.20446670,1.9000,0.488050,0.440680,0.359550,0.749445,0.749051
2025-02-05 05:00:32.810,0.0016,-0.0002,0.0236,0.0000,0.0000,0.0000,28.1258,106.60249771,35.20446669,1.9090,0.487640,0.439910,0.359150,0.748533,0.748973
2025-02-05 05:00:32.820,0.0015,-0.0003,0.0232,0.0000,0.0000,0.0000,28.1894,106.60249769,35.20446668,1.9180,0.488460,0.440580,0.359370,0.749567,0.749026
2025-02-05 05:00:32.830,0.0015,-0.0001,0.0234,0.0000,0.0000,0.0000,28.2406,106.60249768,35.20446668,1.9280,0.488110,0.440650,0.359050,0.749227,0.749099
2025-02-05 05:00:32.840,0.0015,-0.0001,0.0229,0.0000,0.0000,0.0000,28.2234,106.60249767,35.20446667,1.9370,0.487760,0.440490,0.359360,0.749053,0.749066
2025-02-05 05:00:32.850,0.0022,0.0001,0.0228,0.0000,0.0000,0.0000,28.2393,106.60249767,35.20446667,1.9550,0.488230,0.440470,0.359380,0.749357,0.749217
2025-02-05 05:00:32.860,0.0019,-0.0004,0.0229,0.0000,0.0000,0.0000,28.2783,106.60249767,35.20446667,1.9650,0.488090,0.440470,0.359050,0.749108,0.749203
2025-02-05 05:00:32.870,0.0019,-0.0007,0.0233,0.0000,0.0000,0.0000,28.3214,106.60249767,35.20446667,1.9740,0.487860,0.441140,0.359190,0.749419,0.749258
2025-02-05 05:00:32.880,0.0015,-0.0006,0.0239,0.0000,0.0000,0.0000,28.3896,106.60249767,35.20446667,1.9830,0.487620,0.440960,0.359120,0.749124,0.749238
2025-02-05 05:00:32.890,0.0014,-0.0001,0.0236,0.0000,0.0000,0.0000,28.3604,106.60249767,35.20446667,1.9930,0.487810,0.441110,0.359360,0.749451,0.749239
2025-02-05 05:00:32.900,0.0011,0.0004,0.0239,0.0000,0.0000,0.0000,28.4407,106.60249767,35.20446667,2.0020,0.488160,0.441620,0.359220,0.749912,0.749376
2025-02-05 05:00:32.910,0.0012,0.0009,0.0236,0.0000,0.0000,0.0000,28.4212,106.60249767,35.20446667,2.0110,0.488300,0.441260,0.358870,0.749623,0.749382
2025-02-05 05:00:32.920,0.0003,0.0009,0.0234,0.0000,0.0000,0.0000,28.3359,106.60249767,35.20446667,2.0200,0.488420,0.440720,0.359170,0.749527,0.749412
2025-02-05 05:00:32.930,0.0008,0.0003,0.0245,0.0000,0.0000,0.0000,28.2865,106.60249767,35.20446667,2.0300,0.488000,0.440830,0.359110,0.749290,0.749436
2025-02-05 05:00:32.940,0.0013,0.0002,0.0253,0.0000,0.0000,0.0000,28.2820,106.60249767,35.20446667,2.0390,0.487740,0.440840,0.359030,0.749088,0.749390
2025-02-05 05:00:32.950,0.0017,0.0001,0.0248,0.0000,0.0000,0.0000,28.2851,106.60249767,35.20446667,2.0480,0.487290,0.440680,0.359440,0.748898,0.749344
2025-02-05 05:00:32.960,0.0018,-0.0002,0.0251,0.0000,0.0000,0.0000,28.3091,106.60249767,35.20446667,2.0580,0.487560,0.441160,0.358890,0.749092,0.749342
2025-02-05 05:00:32.970,0.0012,-0.0003,0.0248,0.0000,0.0000,0.0000,28.2915,106.60249767,35.20446667,2.0670,0.488020,0.440960,0.359170,0.749408,0.749341
2025-02-05 05:00:32.980,0.0012,-0.0002,0.0241,0.0000,0.0000,0.0000,28.2672,106.60249767,35.20446667,2.0850,0.488290,0.440590,0.359450,0.749500,0.749373
2025-02-05 05:00:32.990,0.0011,-0.0002,0.0239,0.0000,0.0000,0.0000,28.2904,106.60249767,35.20446667,2.0950,0.487990,0.441070,0.359400,0.749563,0.749339
2025-02-05 05:00:33.000,0.0011,-0.0000,0.0239,0.0000,0.0000,0.0000,28.3547,106.60249767,35.20446667,2.1040,0.487420,0.441030,0.359220,0.749083,0.749285
2025-02-05 05:00:33.010,0.0012,0.0003,0.0235,0.0000,0.0000,0.0000,28.3552,106.60249767,35.20446667,2.1130,0.488120,0.440950,0.359290,0.749525,0.749284
2025-02-05 05:00:33.020,0.0007,0.0003,0.0230,0.0000,0.0000,0.0000,28.3196,106.60249767,35.20446667,2.1230,0.487860,0.440770,0.359720,0.749456,0.749301
2025-02-05 05:00:33.030,0.0010,0.0003,0.0238,0.0000,0.0000,0.0000,28.4241,106.60249767,35.20446667,2.1320,0.487950,0.441170,0.359930,0.749851,0.749377
2025-02-05 05:00:33.040,0.0010,0.0003,0.0241,0.0000,0.0000,0.0000,28.4218,106.60249767,35.20446667,2.1410,0.487850,0.441040,0.359610,0.749555,0.749443
2025-02-05 05:00:33.050,0.0016,0.0006,0.0245,0.0000,0.0000,0.0000,28.4202,106.60249767,35.20446667,2.1510,0.487840,0.440780,0.359330,0.749262,0.749460
2025-02-05 05:00:33.060,0.0020,0.0007,0.0241,0.0000,0.0000,0.0000,28.4231,106.60249767,35.20446667,2.1600,0.487620,0.441090,0.359550,0.749406,0.749460
2025-02-05 05:00:33.070,0.0022,0.0003,0.0229,0.0000,0.0000,0.0000,28.3935,106.60249767,35.20446667,2.1690,0.487810,0.440700,0.359410,0.749233,0.749443
2025-02-05 05:00:33.080,0.0024,0.0006,0.0237,0.0000,0.0000,0.0000,28.3847,106.60249767,35.20446667,2.1780,0.488050,0.440240,0.359390,0.749110,0.749404
2025-02-05 05:00:33.090,0.0020,0.0008,0.0241,0.0000,0.0000,0.0000,28.3426,106.60249767,35.20446667,2.1880,0.488400,0.440870,0.358970,0.749507,0.749399
2025-02-05 05:00:33.100,0.0019,0.0002,0.0246,0.0000,0.0000,0.0000,28.3533,106.60249767,35.20446667,2.1970,0.488110,0.440680,0.359350,0.749388,0.749429
2025-02-05 05:00:33.110,0.0021,-0.0004,0.0243,0.0000,0.0000,0.0000,28.3216,106.60249767,35.20446667,2.2060,0.488290,0.441160,0.359720,0.749965,0.749473
2025-02-05 05:00:33.120,0.0019,0.0000,0.0239,0.0000,0.0000,0.0000,28.2706,106.60249767,35.20446667,2.2250,0.488740,0.441270,0.359190,0.750069,0.749546
2025-02-05 05:00:33.130,0.0016,-0.0001,0.0241,0.0000,0.0000,0.0000,28.2756,106.60249767,35.20446667,2.2340,0.488140,0.440970,0.359200,0.749506,0.749541
2025-02-05 05:00:33.140,0.0016,-0.0008,0.0243,0.0000,0.0000,0.0000,28.2888,106.60249767,35.20446667,2.2440,0.487870,0.440770,0.359030,0.749131,0.749528
2025-02-05 05:00:33.150,0.0016,-0.0006,0.0242,0.0000,0.0000,0.0000,28.2496,106.60249767,35.20446667,2.2530,0.487620,0.440590,0.359020,0.748858,0.749473
2025-02-05 05:00:33.160,0.0012,-0.0002,0.0236,0.0000,0.0000,0.0000,28.2232,106.60249766,35.20446666,2.2620,0.487490,0.440980,0.359180,0.749080,0.749458
2025-02-05 05:00:33.170,0.0009,0.0004,0.0227,0.0000,0.0000,0.0000,28.2140,106.60249766,35.20446666,2.2710,0.487370,0.440690,0.359200,0.748840,0.749431
2025-02-05 05:00:33.180,0.0006,0.0004,0.0224,0.0000,0.0000,0.0000,28.2117,106.60249765,35.20446665,2.2810,0.487570,0.440490,0.358700,0.748613,0.749341
2025-02-05 05:00:33.190,0.0003,-0.0001,0.0220,0.0000,0.0000,0.0000,28.2402,106.60249763,35.20446663,2.2900,0.488020,0.440730,0.358650,0.749024,0.749305
2025-02-05 05:00:33.200,0.0007,-0.0005,0.0223,0.0000,0.0000,0.0000,28.2635,106.60249759,35.20446659,2.2990,0.487640,0.440750,0.358980,0.748946,0.749203
2025-02-05 05:00:33.210,0.0009,-0.0009,0.0225,0.0000,0.0000,0.0000,28.3464,106.60249754,35.20446654,2.3090,0.487600,0.441170,0.358930,0.749143,0.749121
2025-02-05 05:00:33.220,0.0009,-0.0006,0.0226,0.0000,0.0000,0.0000,28.3832,106.60249752,35.20446652,2.3180,0.488130,0.441210,0.358670,0.749387,0.749053
2025-02-05 05:00:33.230,0.0011,-0.0005,0.0228,0.0000,0.0000,0.0000,28.3448,106.60249751,35.20446651,2.3270,0.487330,0.440960,0.358980,0.748868,0.748989
2025-02-05 05:00:33.240,0.0011,-0.0004,0.0235,0.0000,0.0000,0.0000,28.3066,106.60249751,35.20446651,2.3460,0.487090,0.440640,0.358850,0.748461,0.748930
2025-02-05 05:00:33.250,0.0009,-0.0003,0.0246,0.0000,0.0000,0.0000,28.3478,106.60249750,35.20446650,2.3550,0.487220,0.440320,0.359250,0.748549,0.748877
2025-02-05 05:00:33.260,0.0010,-0.0004,0.0244,0.0000,0.0000,0.0000,28.3624,106.60249750,35.20446650,2.3640,0.487880,0.440210,0.359040,0.748813,0.748874
2025-02-05 05:00:33.270,0.0017,-0.0003,0.0238,0.0000,0.0000,0.0000,28.2855,106.60249750,35.20446650,2.3740,0.488160,0.440110,0.358850,0.748846,0.748898
2025-02-05 05:00:33.280,0.0014,-0.0010,0.0236,0.0000,0.0000,0.0000,28.2892,106.60249750,35.20446650,2.3830,0.487980,0.440520,0.358750,0.748922,0.748888
2025-02-05 05:00:33.290,0.0010,-0.0010,0.0239,0.0000,0.0000,0.0000,28.3303,106.60249750,35.20446650,2.3920,0.487420,0.440810,0.358820,0.748761,0.748869
2025-02-05 05:00:33.300,0.0008,-0.0009,0.0238,0.0000,0.0000,0.0000,28.3541,106.60249750,35.20446650,2.4020,0.487580,0.440510,0.358740,0.748651,0.748820
2025-02-05 05:00:33.310,0.0008,-0.0006,0.0245,0.0000,0.0000,0.0000,28.3839,106.60249750,35.20446650,2.4110,0.486950,0.440480,0.358900,0.748300,0.748711
2025-02-05 05:00:33.320,0.0008,-0.0002,0.0240,0.0000,0.0000,0.0000,28.4053,106.60249750,35.20446650,2.4200,0.487210,0.440640,0.358840,0.748534,0.748678
2025-02-05 05:00:33.330,0.0008,0.0003,0.0234,0.0000,0.0000,0.0000,28.4072,106.60249750,35.20446650,2.4290,0.486690,0.439900,0.358490,0.747592,0.748543
2025-02-05 05:00:33.340,0.0013,0.0002,0.0237,0.0000,0.0000,0.0000,28.3422,106.60249750,35.20446649,2.4390,0.487070,0.440000,0.358710,0.748004,0.748497
2025-02-05 05:00:33.350,0.0010,0.0003,0.0242,0.0000,0.0000,0.0000,28.2639,106.60249750,35.20446649,2.4480,0.487330,0.440760,0.358820,0.748673,0.748510
2025-02-05 05:00:33.360,0.0009,0.0002,0.0239,0.0000,0.0000,0.0000,28.2921,106.60249750,35.20446648,2.4570,0.487460,0.440330,0.358660,0.748428,0.748471
2025-02-05 05:00:33.370,0.0010,0.0001,0.0242,0.0000,0.0000,0.0000,28.3414,106.60249750,35.20446646,2.4670,0.487370,0.440540,0.358980,0.748647,0.748451
2025-02-05 05:00:33.380,0.0010,0.0002,0.0247,0.0000,0.0000,0.0000,28.2925,106.60249750,35.20446641,2.4850,0.488040,0.440770,0.358830,0.749146,0.748502
2025-02-05 05:00:33.390,0.0014,0.0003,0.0253,0.0000,0.0000,0.0000,28.2617,106.60249750,35.20446636,2.4940,0.487530,0.440840,0.359000,0.748937,0.748530
2025-02-05 05:00:33.400,0.0013,-0.0003,0.0245,0.0000,0.0000,0.0000,28.2643,106.60249750,35.20446635,2.5040,0.487700,0.440680,0.359180,0.749040,0.748604
2025-02-05 05:00:33.410,0.0013,0.0001,0.0242,0.0000,0.0000,0.0000,28.2459,106.60249750,35.20446634,2.5130,0.487610,0.440580,0.358950,0.748812,0.748632
2025-02-05 05:00:33.420,0.0019,0.0006,0.0236,0.0000,0.0000,0.0000,28.2774,106.60249750,35.20446634,2.5220,0.487810,0.440650,0.359180,0.749094,0.748782
2025-02-05 05:00:33.430,0.0021,0.0003,0.0236,0.0000,0.0000,0.0000,28.3416,106.60249750,35.20446633,2.5320,0.487830,0.440570,0.359370,0.749151,0.748897
2025-02-05 05:00:33.440,0.0018,-0.0002,0.0235,0.0000,0.0000,0.0000,28.4033,106.60249750,35.20446633,2.5410,0.487510,0.440820,0.359560,0.749181,0.748947
2025-02-05 05:00:33.450,0.0018,-0.0005,0.0234,0.0000,0.0000,0.0000,28.3675,106.60249750,35.20446633,2.5500,0.487160,0.440840,0.358990,0.748691,0.748974
2025-02-05 05:00:33.460,0.0017,-0.0003,0.0239,0.0000,0.0000,0.0000,28.3453,106.60249750,35.20446633,2.5600,0.487870,0.441180,0.359180,0.749445,0.749054
2025-02-05 05:00:33.470,0.0011,-0.0003,0.0242,0.0000,0.0000,0.0000,28.3894,106.60249750,35.20446633,2.5690,0.487840,0.441210,0.359370,0.749534,0.749103
2025-02-05 05:00:33.480,0.0010,-0.0002,0.0237,0.0000,0.0000,0.0000,28.3657,106.60249750,35.20446633,2.5780,0.487300,0.441380,0.359220,0.749211,0.749109
2025-02-05 05:00:33.490,0.0011,-0.0002,0.0238,0.0000,0.0000,0.0000,28.3344,106.60249750,35.20446633,2.5870,0.487240,0.441150,0.359200,0.749027,0.749118
2025-02-05 05:00:33.500,0.0006,-0.0004,0.0236,0.0000,0.0000,0.0000,28.3745,106.60249750,35.20446633,2.5970,0.487450,0.440960,0.359200,0.749051,0.749120
2025-02-05 05:00:33.510,0.0006,-0.0000,0.0237,0.0000,0.0000,0.0000,28.3253,106.60249750,35.20446633,2.6150,0.487810,0.441220,0.359190,0.749434,0.749200
2025-02-05 05:00:33.520,0.0004,0.0001,0.0253,0.0000,0.0000,0.0000,28.3180,106.60249750,35.20446633,2.6250,0.488480,0.441300,0.359030,0.749841,0.749269
2025-02-05 05:00:33.530,0.0006,-0.0002,0.0249,0.0000,0.0000,0.0000,28.3048,106.60249750,35.20446633,2.6340,0.488010,0.441220,0.359020,0.749483,0.749300
2025-02-05 05:00:33.540,0.0010,-0.0002,0.0242,0.0000,0.0000,0.0000,28.2133,106.60249750,35.20446633,2.6430,0.488390,0.440710,0.359270,0.749550,0.749385
2025-02-05 05:00:33.550,0.0015,-0.0006,0.0233,0.0000,0.0000,0.0000,28.2418,106.60249750,35.20446633,2.6520,0.487570,0.441000,0.359460,0.749278,0.749369
2025-02-05 05:00:33.560,0.0011,-0.0003,0.0235,0.0000,0.0000,0.0000,28.2122,106.60249750,35.20446633,2.6620,0.487700,0.441110,0.359230,0.749317,0.749347
2025-02-05 05:00:33.570,0.0014,0.0006,0.0233,0.0000,0.0000,0.0000,28.2657,106.60249749,35.20446632,2.6710,0.487610,0.441040,0.359290,0.749246,0.749350
2025-02-05 05:00:33.580,0.0020,0.0002,0.0243,0.0000,0.0000,0.0000,28.2276,106.60249748,35.20446631,2.6800,0.487380,0.441110,0.359210,0.749099,0.749358
2025-02-05 05:00:33.590,0.0014,-0.0001,0.0236,0.0000,0.0000,0.0000,28.2394,106.60249746,35.20446630,2.6900,0.488220,0.441370,0.359460,0.749918,0.749444
2025-02-05 05:00:33.600,0.0017,0.0003,0.0237,0.0000,0.0000,0.0000,28.2841,106.60249740,35.20446624,2.6990,0.488200,0.441060,0.359230,0.749613,0.749478
2025-02-05 05:00:33.610,0.0020,0.0002,0.0233,0.0000,0.0000,0.0000,28.3598,106.60249736,35.20446620,2.7080,0.487760,0.440870,0.359040,0.749123,0.749447
2025-02-05 05:00:33.620,0.0020,-0.0002,0.0245,0.0000,0.0000,0.0000,28.3841,106.60249735,35.20446619,2.7180,0.487940,0.440930,0.359350,0.749425,0.749405
2025-02-05 05:00:33.630,0.0017,0.0001,0.0231,0.0000,0.0000,0.0000,28.3348,106.60249734,35.20446618,2.7270,0.487740,0.441020,0.359050,0.749203,0.749377
2025-02-05 05:00:33.640,0.0015,0.0009,0.0234,0.0000,0.0000,0.0000,28.2590,106.60249733,35.20446617,2.7450,0.487770,0.440900,0.359520,0.749378,0.749361
2025-02-05 05:00:33.650,0.0010,0.0007,0.0239,0.0000,0.0000,0.0000,28.2808,106.60249733,35.20446617,2.7550,0.487940,0.441020,0.359490,0.749545,0.749384
2025-02-05 05:00:33.660,0.0011,0.0008,0.0241,0.0000,0.0000,0.0000,28.2515,106.60249733,35.20446617,2.7640,0.487850,0.440610,0.359400,0.749202,0.749379
2025-02-05 05:00:33.670,0.0011,0.0008,0.0250,0.0000,0.0000,0.0000,28.2845,106.60249733,35.20446617,2.7730,0.487730,0.440650,0.359390,0.749142,0.749384
2025-02-05 05:00:33.680,0.0011,0.0004,0.0251,0.0000,0.0000,0.0000,28.2968,106.60249733,35.20446617,2.7830,0.487290,0.440320,0.359470,0.748700,0.749262
2025-02-05 05:00:33.690,0.0006,0.0006,0.0250,0.0000,0.0000,0.0000,28.2443,106.60249733,35.20446617,2.7920,0.487780,0.440960,0.359480,0.749400,0.749240
2025-02-05 05:00:33.700,0.0010,-0.0001,0.0236,0.0000,0.0000,0.0000,28.2763,106.60249733,35.20446617,2.8010,0.487610,0.441110,0.359400,0.749340,0.749262
2025-02-05 05:00:33.710,0.0012,-0.0000,0.0246,0.0000,0.0000,0.0000,28.2753,106.60249733,35.20446617,2.8110,0.487810,0.441290,0.359470,0.749609,0.749281
2025-02-05 05:00:33.720,0.0010,-0.0005,0.0237,0.0000,0.0000,0.0000,28.3706,106.60249733,35.20446617,2.8200,0.488260,0.441390,0.359480,0.749966,0.749357
2025-02-05 05:00:33.730,0.0011,-0.0007,0.0225,0.0000,0.0000,0.0000,28.4326,106.60249733,35.20446617,2.8290,0.487340,0.441570,0.359230,0.749353,0.749364
2025-02-05 05:00:33.740,0.0003,0.0013,0.0233,0.0000,0.0000,0.0000,28.3431,106.60249733,35.20446617,2.8380,0.487680,0.441670,0.358870,0.749461,0.749372
2025-02-05 05:00:33.750,0.0003,0.0008,0.0216,0.0000,0.0000,0.0000,28.2685,106.60249733,35.20446617,2.8480,0.488140,0.441340,0.359170,0.749710,0.749388
2025-02-05 05:00:33.760,0.0007,0.0001,0.0210,0.0000,0.0000,0.0000,28.2790,106.60249732,35.20446617,2.8570,0.487540,0.441650,0.359280,0.749555,0.749424
2025-02-05 05:00:33.770,0.0014,-0.0005,0.0219,0.0000,0.0000,0.0000,28.2841,106.60249731,35.20446617,2.8760,0.488240,0.441150,0.359190,0.749673,0.749541
2025-02-05 05:00:33.780,0.0010,-0.0007,0.0235,0.0000,0.0000,0.0000,28.2592,106.60249729,35.20446617,2.8850,0.487660,0.441040,0.359030,0.749154,0.749516
2025-02-05 05:00:33.790,0.0016,-0.0005,0.0228,0.0000,0.0000,0.0000,28.2471,106.60249723,35.20446617,2.8940,0.487060,0.440860,0.358850,0.748571,0.749439
2025-02-05 05:00:33.800,0.0010,0.0000,0.0241,0.0000,0.0000,0.0000,28.2270,106.60249719,35.20446617,2.9040,0.487650,0.440850,0.359170,0.749102,0.749389
2025-02-05 05:00:33.810,0.0010,0.0001,0.0240,0.0000,0.0000,0.0000,28.4305,106.60249718,35.20446617,2.9130,0.487710,0.440760,0.359200,0.749103,0.749302
2025-02-05 05:00:33.820,0.0010,-0.0004,0.0234,0.0000,0.0000,0.0000,28.4064,106.60249718,35.20446617,2.9220,0.488150,0.440500,0.359030,0.749155,0.749283
2025-02-05 05:00:33.830,0.0009,0.0002,0.0237,0.0000,0.0000,0.0000,28.3081,106.60249718,35.20446617,2.9310,0.488080,0.440560,0.359020,0.749140,0.749250
2025-02-05 05:00:33.840,0.0005,-0.0001,0.0246,0.0000,0.0000,0.0000,28.2357,106.60249717,35.20446617,2.9410,0.487320,0.440650,0.359100,0.748736,0.749153
2025-02-05 05:00:33.850,0.0005,0.0002,0.0239,0.0000,0.0000,0.0000,28.3251,106.60249717,35.20446617,2.9500,0.487460,0.440990,0.359020,0.748989,0.749097
2025-02-05 05:00:33.860,0.0012,0.0009,0.0254,0.0000,0.0000,0.0000,28.3993,106.60249717,35.20446617,2.9590,0.487910,0.441280,0.359350,0.749611,0.749123
2025-02-05 05:00:33.870,0.0016,0.0004,0.0256,0.0000,0.0000,0.0000,28.3422,106.60249717,35.20446617,2.9690,0.487950,0.441220,0.359220,0.749539,0.749110
2025-02-05 05:00:33.880,0.0009,0.0011,0.0242,0.0000,0.0000,0.0000,28.3269,106.60249717,35.20446617,2.9780,0.488170,0.441380,0.359290,0.749810,0.749176
2025-02-05 05:00:33.890,0.0028,0.0003,0.0252,0.0000,0.0000,0.0000,28.3173,106.60249717,35.20446617,2.9870,0.487650,0.441150,0.359210,0.749298,0.749248
2025-02-05 05:00:33.900,0.0018,0.0002,0.0263,0.0000,0.0000,0.0000,28.2795,106.60249717,35.20446617,3.0060,0.487310,0.441650,0.358900,0.749223,0.749327
2025-02-05 05:00:33.910,0.0018,0.0001,0.0247,0.0000,0.0000,0.0000,28.2083,106.60249717,35.20446617,3.0150,0.487350,0.441010,0.359260,0.749044,0.749316
2025-02-05 05:00:33.920,0.0015,0.0001,0.0244,0.0000,0.0000,0.0000,28.2164,106.60249717,35.20446617,3.0240,0.487680,0.440690,0.359630,0.749248,0.749327
2025-02-05 05:00:33.930,0.0010,0.0003,0.0244,0.0000,0.0000,0.0000,28.1961,106.60249717,35.20446617,3.0340,0.487390,0.440830,0.359410,0.749036,0.749357
2025-02-05 05:00:33.940,0.0010,0.0000,0.0253,0.0000,0.0000,0.0000,28.2294,106.60249717,35.20446617,3.0430,0.487140,0.440840,0.359730,0.749033,0.749361
2025-02-05 05:00:33.950,0.0018,-0.0002,0.0246,0.0000,0.0000,0.0000,28.2788,106.60249717,35.20446617,3.0520,0.487440,0.440680,0.359420,0.748986,0.749299
2025-02-05 05:00:33.960,0.0015,-0.0000,0.0255,0.0000,0.0000,0.0000,28.3022,106.60249717,35.20446617,3.0620,0.487690,0.440740,0.359220,0.749088,0.749253
2025-02-05 05:00:33.970,0.0017,-0.0000,0.0253,0.0000,0.0000,0.0000,28.4020,106.60249717,35.20446617,3.0710,0.487820,0.440580,0.359370,0.749150,0.749187
2025-02-05 05:00:33.980,0.0012,0.0003,0.0236,0.0000,0.0000,0.0000,28.4392,106.60249716,35.20446617,3.0800,0.487730,0.441150,0.359220,0.749355,0.749193
2025-02-05 05:00:33.990,0.0010,-0.0001,0.0247,0.0000,0.0000,0.0000,28.4445,106.60249715,35.20446617,3.0890,0.488150,0.440710,0.359370,0.749441,0.749161
2025-02-05 05:00:34.000,0.0017,-0.0006,0.0239,0.0000,0.0000,0.0000,28.3566,106.60249714,35.20446617,3.0990,0.488300,0.440830,0.359470,0.749658,0.749204
2025-02-05 05:00:34.010,0.0020,-0.0008,0.0256,0.0000,0.0000,0.0000,28.2825,106.60249705,35.20446617,3.1080,0.487990,0.440260,0.359310,0.749044,0.749204
2025-02-05 05:00:34.020,0.0021,0.0005,0.0263,0.0000,0.0000,0.0000,28.2916,106.60249702,35.20446617,3.1270,0.487850,0.440790,0.359630,0.749418,0.749220
2025-02-05 05:00:34.030,0.0006,0.0000,0.0244,0.0000,0.0000,0.0000,28.2162,106.60249701,35.20446617,3.1360,0.487840,0.441010,0.359580,0.749517,0.749269
2025-02-05 05:00:34.040,0.0020,0.0003,0.0268,0.0000,0.0000,0.0000,28.4231,106.60249701,35.20446617,3.1450,0.487840,0.440940,0.359240,0.749313,0.749301
2025-02-05 05:00:34.050,0.0011,-0.0006,0.0246,0.0000,0.0000,0.0000,28.4096,106.60249700,35.20446617,3.1550,0.487840,0.440940,0.359210,0.749298,0.749322
2025-02-05 05:00:34.060,0.0018,0.0005,0.0236,0.0000,0.0000,0.0000,28.3550,106.60249700,35.20446617,3.1640,0.487730,0.441350,0.359290,0.749506,0.749358
2025-02-05 05:00:34.070,0.0011,0.0014,0.0257,0.0000,0.0000,0.0000,28.3467,106.60249700,35.20446617,3.1730,0.488150,0.440980,0.359290,0.749562,0.749379
2025-02-05 05:00:34.080,0.0007,-0.0005,0.0263,0.0000,0.0000,0.0000,28.4233,106.60249700,35.20446617,3.1820,0.488410,0.441270,0.359040,0.749782,0.749413
2025-02-05 05:00:34.090,0.0010,0.0000,0.0232,0.0000,0.0000,0.0000,28.2611,106.60249700,35.20446617,3.1920,0.487890,0.440720,0.359190,0.749192,0.749366
2025-02-05 05:00:34.100,0.0009,0.0004,0.0235,0.0000,0.0000,0.0000,28.3315,106.60249700,35.20446617,3.2010,0.487840,0.441420,0.359450,0.749696,0.749431
2025-02-05 05:00:34.110,0.0003,0.0007,0.0232,0.0000,0.0000,0.0000,28.2915,106.60249700,35.20446617,3.2100,0.487840,0.440980,0.359140,0.749288,0.749457
2025-02-05 05:00:34.120,0.0005,-0.0006,0.0236,0.0000,0.0000,0.0000,28.3265,106.60249700,35.20446617,3.2200,0.487840,0.441280,0.359280,0.749532,0.749469
2025-02-05 05:00:34.130,0.0009,-0.0006,0.0249,0.0000,0.0000,0.0000,28.2851,106.60249700,35.20446617,3.2290,0.487190,0.441220,0.359040,0.748959,0.749413
2025-02-05 05:00:34.140,0.0009,0.0004,0.0234,0.0000,0.0000,0.0000,28.3187,106.60249700,35.20446617,3.2380,0.487450,0.440960,0.358850,0.748884,0.749370
2025-02-05 05:00:34.150,-0.0001,0.0015,0.0252,0.0000,0.0000,0.0000,28.2021,106.60249700,35.20446617,3.2470,0.488120,0.440350,0.358910,0.748990,0.749339
2025-02-05 05:00:34.160,0.0006,0.0002,0.0241,0.0000,0.0000,0.0000,28.3123,106.60249699,35.20446616,3.2660,0.488070,0.440760,0.359460,0.749462,0.749317
2025-02-05 05:00:34.170,0.0009,0.0005,0.0243,0.0000,0.0000,0.0000,28.1677,106.60249699,35.20446616,3.2750,0.487750,0.440420,0.359060,0.748862,0.749225
2025-02-05 05:00:34.180,0.0014,0.0014,0.0240,0.0000,0.0000,0.0000,28.4775,106.60249698,35.20446615,3.2850,0.488580,0.440550,0.359520,0.749700,0.749276
2025-02-05 05:00:34.190,0.0017,0.0001,0.0236,0.0000,0.0000,0.0000,28.3243,106.60249686,35.20446603,3.2940,0.488130,0.440400,0.359400,0.749261,0.749233
2025-02-05 05:00:34.200,0.0011,-0.0011,0.0239,0.0000,0.0000,0.0000,28.1907,106.60249685,35.20446602,3.3030,0.488400,0.440630,0.359220,0.749485,0.749252
2025-02-05 05:00:34.210,0.0005,-0.0015,0.0245,0.0000,0.0000,0.0000,28.2194,106.60249684,35.20446601,3.3130,0.487890,0.440990,0.359290,0.749399,0.749239
2025-02-05 05:00:34.220,0.0020,0.0000,0.0239,0.0000,0.0000,0.0000,28.2157,106.60249684,35.20446601,3.3220,0.488160,0.440770,0.359380,0.749488,0.749292
2025-02-05 05:00:34.230,0.0014,-0.0003,0.0232,0.0000,0.0000,0.0000,28.1820,106.60249683,35.20446600,3.3310,0.487870,0.441000,0.359220,0.749358,0.749339
2025-02-05 05:00:34.240,0.0017,-0.0016,0.0232,0.0000,0.0000,0.0000,28.2594,106.60249683,35.20446600,3.3400,0.488380,0.441110,0.359460,0.749870,0.749427
2025-02-05 05:00:34.250,0.0003,-0.0008,0.0249,0.0000,0.0000,0.0000,28.2218,106.60249683,35.20446600,3.3500,0.488210,0.440790,0.359310,0.749499,0.749438
2025-02-05 05:00:34.260,0.0000,-0.0024,0.0239,0.0000,0.0000,0.0000,28.2800,106.60249683,35.20446600,3.3590,0.487980,0.440840,0.359470,0.749455,0.749438
2025-02-05 05:00:34.270,0.0020,-0.0015,0.0229,0.0000,0.0000,0.0000,28.2100,106.60249683,35.20446600,3.3680,0.488070,0.440840,0.359310,0.749437,0.749495
2025-02-05 05:00:34.280,0.0000,0.0000,0.0234,0.0000,0.0000,0.0000,28.2800,106.60249683,35.20446600,3.3780,0.488400,0.440840,0.359130,0.749566,0.749482
2025-02-05 05:00:34.290,0.0000,0.0000,0.0254,0.0000,0.0000,0.0000,28.3400,106.60249683,35.20446600,3.3960,0.487780,0.440860,0.359550,0.749375,0.749517
2025-02-05 05:00:34.300,0.0000,-0.0010,0.0283,0.0000,0.0000,0.0000,28.2800,106.60249683,35.20446600,3.4050,0.488370,0.441100,0.358820,0.749551,0.749532
2025-02-05 05:00:34.310,-0.0005,0.0000,0.0239,0.0000,0.0000,0.0000,28.5300,106.60249683,35.20446600,3.4150,0.488100,0.440950,0.358910,0.749330,0.749516
2025-02-05 05:00:34.320,0.0024,-0.0005,0.0210,0.0000,0.0000,0.0000,28.2100,106.60249683,35.20446600,3.4240,0.488080,0.440940,0.359090,0.749397,0.749520
2025-02-05 05:00:34.330,0.0010,0.0015,0.0239,0.0000,0.0000,0.0000,28.3400,106.60249683,35.20446600,3.4330,0.488070,0.440180,0.359020,0.748910,0.749424
2025-02-05 05:00:34.340,0.0020,0.0000,0.0229,0.0000,0.0000,0.0000,28.2800,106.60249683,35.20446600,3.4430,0.487970,0.440440,0.358850,0.748916,0.749366
2025-02-05 05:00:34.350,0.0005,0.0000,0.0229,0.0000,0.0000,0.0000,28.3400,106.60249683,35.20446600,3.4520,0.487960,0.440470,0.358910,0.748956,0.749316
2025-02-05 05:00:34.360,0.0010,-0.0005,0.0234,0.0000,0.0000,0.0000,28.2800,106.60249683,35.20446600,3.4610,0.487740,0.440720,0.358670,0.748845,0.749257
2025-02-05 05:00:34.370,0.0017,-0.0005,0.0231,0.0000,0.0000,0.0000,28.3092,106.60249658,35.20446587,3.4710,0.488150,0.440580,0.358640,0.749015,0.749202
2025-02-05 05:00:34.380,0.0015,0.0005,0.0229,0.0000,0.0000,0.0000,28.4700,106.60249650,35.20446583,3.4800,0.488300,0.440320,0.358980,0.749123,0.749142
2025-02-05 05:00:34.390,0.0024,-0.0005,0.0244,0.0000,0.0000,0.0000,28.1500,106.60249650,35.20446583,3.4890,0.488100,0.440710,0.359180,0.749318,0.749136
2025-02-05 05:00:34.400,0.0024,-0.0015,0.0239,0.0000,0.0000,0.0000,28.4700,106.60249650,35.20446583,3.4980,0.487970,0.441080,0.359030,0.749379,0.749119
2025-02-05 05:00:34.410,-0.0010,0.0015,0.0234,0.0000,0.0000,0.0000,28.4700,106.60249650,35.20446583,3.5080,0.488060,0.440370,0.359020,0.749015,0.749087
2025-02-05 05:00:34.420,0.0015,0.0015,0.0269,0.0000,0.0000,0.0000,28.3400,106.60249650,35.20446583,3.5170,0.487860,0.440460,0.359180,0.749014,0.749049
2025-02-05 05:00:34.430,0.0000,0.0000,0.0269,0.0000,0.0000,0.0000,28.0200,106.60249650,35.20446583,3.5360,0.488460,0.441180,0.359390,0.749929,0.749180
2025-02-05 05:00:34.440,0.0029,-0.0020,0.0229,0.0000,0.0000,0.0000,28.1500,106.60249650,35.20446583,3.5450,0.488540,0.441040,0.359220,0.749818,0.749266
2025-02-05 05:00:34.450,0.0020,0.0015,0.0220,0.0000,0.0000,0.0000,28.2100,106.60249650,35.20446583,3.5540,0.487910,0.440700,0.358950,0.749078,0.749289
2025-02-05 05:00:34.460,0.0015,0.0000,0.0254,0.0000,0.0000,0.0000,28.2800,106.60249650,35.20446583,3.5630,0.488170,0.440660,0.359350,0.749416,0.749329
2025-02-05 05:00:34.470,0.0029,-0.0015,0.0259,0.0000,0.0000,0.0000,28.1500,106.60249650,35.20446583,3.5730,0.487440,0.440410,0.359130,0.748688,0.749286
2025-02-05 05:00:34.480,0.0024,0.0000,0.0249,0.0000,0.0000,0.0000,28.0200,106.60249650,35.20446583,3.5820,0.487470,0.440880,0.359530,0.749176,0.749271
2025-02-05 05:00:34.490,-0.0005,-0.0015,0.0239,0.0000,0.0000,0.0000,28.3400,106.60249650,35.20446583,3.5910,0.488010,0.440510,0.359570,0.749329,0.749266
2025-02-05 05:00:34.500,0.0001,-0.0013,0.0238,0.0000,0.0000,0.0000,28.4061,106.60249650,35.20446583,3.6010,0.487850,0.440310,0.359070,0.748867,0.749252
2025-02-05 05:00:34.510,0.0015,-0.0005,0.0210,0.0000,0.0000,0.0000,28.3400,106.60249650,35.20446583,3.6100,0.488050,0.440460,0.359190,0.749143,0.749264
2025-02-05 05:00:34.520,0.0018,-0.0007,0.0238,0.0000,0.0000,0.0000,28.2463,106.60249650,35.20446583,3.6190,0.487860,0.440140,0.359450,0.748956,0.749240
2025-02-05 05:00:34.530,0.0021,-0.0013,0.0247,0.0000,0.0000,0.0000,28.3282,106.60249650,35.20446583,3.6290,0.487840,0.440610,0.359400,0.749195,0.749166
2025-02-05 05:00:34.540,0.0015,-0.0016,0.0218,0.0000,0.0000,0.0000,28.3341,106.60249650,35.20446583,3.6380,0.488370,0.440900,0.359220,0.749625,0.749147
2025-02-05 05:00:34.550,0.0018,-0.0002,0.0252,0.0000,0.0000,0.0000,28.3239,106.60249650,35.20446583,3.6560,0.487850,0.440410,0.358930,0.748859,0.749100
2025-02-05 05:00:34.560,0.0005,-0.0007,0.0241,0.0000,0.0000,0.0000,28.2123,106.60249650,35.20446582,3.6660,0.488270,0.440630,0.359180,0.749382,0.749170
2025-02-05 05:00:34.570,0.0017,-0.0000,0.0246,0.0000,0.0000,0.0000,28.4112,106.60249650,35.20446582,3.6750,0.487880,0.440990,0.359030,0.749267,0.749179
2025-02-05 05:00:34.580,0.0013,0.0004,0.0270,0.0000,0.0000,0.0000,28.3302,106.60249650,35.20446580,3.6840,0.487950,0.441030,0.358850,0.749250,0.749171
2025-02-05 05:00:34.590,0.0006,0.0009,0.0239,0.0000,0.0000,0.0000,28.2063,106.60249650,35.20446569,3.6940,0.488060,0.440190,0.358660,0.748737,0.749158
2025-02-05 05:00:34.600,0.0009,0.0006,0.0239,0.0000,0.0000,0.0000,28.3202,106.60249650,35.20446568,3.7030,0.488180,0.440280,0.358470,0.748777,0.749122
2025-02-05 05:00:34.610,0.0006,0.0012,0.0249,0.0000,0.0000,0.0000,28.2913,106.60249650,35.20446568,3.7120,0.488620,0.441120,0.358710,0.749673,0.749193
2025-02-05 05:00:34.620,0.0003,0.0003,0.0255,0.0000,0.0000,0.0000,28.3323,106.60249650,35.20446567,3.7220,0.488880,0.441040,0.359150,0.750006,0.749274
2025-02-05 05:00:34.630,0.0003,0.0017,0.0234,0.0000,0.0000,0.0000,28.4094,106.60249650,35.20446567,3.7310,0.488370,0.440530,0.359370,0.749479,0.749260
2025-02-05 05:00:34.640,0.0011,0.0001,0.0265,0.0000,0.0000,0.0000,28.3131,106.60249650,35.20446567,3.7400,0.487670,0.440810,0.359220,0.749116,0.749254
2025-02-05 05:00:34.650,0.0018,-0.0000,0.0260,0.0000,0.0000,0.0000,28.1508,106.60249650,35.20446567,3.7490,0.487600,0.441010,0.358870,0.749020,0.749271
2025-02-05 05:00:34.660,0.0017,-0.0002,0.0250,0.0000,0.0000,0.0000,28.1856,106.60249650,35.20446567,3.7590,0.487920,0.440860,0.358920,0.749164,0.749249
2025-02-05 05:00:34.670,0.0044,-0.0020,0.0254,0.0000,0.0000,0.0000,28.3044,106.60249650,35.20446567,3.7680,0.488490,0.440590,0.359340,0.749578,0.749280
2025-02-05 05:00:34.680,0.0012,-0.0009,0.0235,0.0000,0.0000,0.0000,28.1867,106.60249650,35.20446567,3.7770,0.488010,0.440480,0.359220,0.749143,0.749269
2025-02-05 05:00:34.690,0.0001,-0.0004,0.0249,0.0000,0.0000,0.0000,28.2315,106.60249650,35.20446567,3.7960,0.488050,0.440820,0.359190,0.749355,0.749362
2025-02-05 05:00:34.700,0.0004,0.0011,0.0218,0.0000,0.0000,0.0000,28.3239,106.60249650,35.20446567,3.8050,0.487860,0.440840,0.359200,0.749248,0.749319
2025-02-05 05:00:34.710,0.0015,-0.0010,0.0246,0.0000,0.0000,0.0000,28.3386,106.60249650,35.20446567,3.8150,0.487620,0.440680,0.358780,0.748796,0.749198
2025-02-05 05:00:34.720,0.0018,-0.0001,0.0253,0.0000,0.0000,0.0000,28.4164,106.60249650,35.20446567,3.8240,0.487060,0.440740,0.358990,0.748567,0.749107
2025-02-05 05:00:34.730,0.0016,0.0002,0.0240,0.0000,0.0000,0.0000,28.2608,106.60249650,35.20446567,3.8330,0.487540,0.440830,0.358840,0.748861,0.749082
2025-02-05 05:00:34.740,0.0019,-0.0004,0.0236,0.0000,0.0000,0.0000,28.3431,106.60249650,35.20446567,3.8420,0.488130,0.440930,0.359170,0.749462,0.749126
2025-02-05 05:00:34.750,0.0020,-0.0004,0.0237,0.0000,0.0000,0.0000,28.3622,106.60249650,35.20446567,3.8520,0.487760,0.440100,0.359370,0.748829,0.749092
2025-02-05 05:00:34.760,0.0025,-0.0004,0.0253,0.0000,0.0000,0.0000,28.4374,106.60249650,35.20446567,3.8610,0.488260,0.440180,0.359220,0.749130,0.749047
2025-02-05 05:00:34.770,0.0021,-0.0002,0.0249,0.0000,0.0000,0.0000,28.3569,106.60249650,35.20446567,3.8700,0.487770,0.440690,0.358780,0.748899,0.749023
2025-02-05 05:00:34.780,0.0005,-0.0022,0.0236,0.0000,0.0000,0.0000,28.4359,106.60249650,35.20446567,3.8800,0.488260,0.440490,0.358820,0.749120,0.749027
2025-02-05 05:00:34.790,0.0008,0.0005,0.0237,0.0000,0.0000,0.0000,28.3585,106.60249650,35.20446567,3.8890,0.488090,0.440980,0.359080,0.749422,0.749033
2025-02-05 05:00:34.800,0.0015,0.0018,0.0230,0.0000,0.0000,0.0000,28.4265,106.60249650,35.20446567,3.8980,0.487970,0.440360,0.359360,0.749114,0.749020
2025-02-05 05:00:34.810,0.0008,0.0005,0.0226,0.0000,0.0000,0.0000,28.2989,106.60249650,35.20446567,3.9080,0.488280,0.440540,0.358880,0.749191,0.749060
2025-02-05 05:00:34.820,0.0010,0.0010,0.0238,0.0000,0.0000,0.0000,28.2331,106.60249650,35.20446567,3.9260,0.487590,0.440890,0.359040,0.749025,0.749106
2025-02-05 05:00:34.830,0.0015,0.0000,0.0259,0.0000,0.0000,0.0000,28.2800,106.60249650,35.20446567,3.9350,0.488130,0.440760,0.359270,0.749410,0.749100
2025-02-05 05:00:34.840,0.0011,0.0013,0.0233,0.0000,0.0000,0.0000,28.2966,106.60249650,35.20446567,3.9450,0.487330,0.440500,0.359040,0.748626,0.749080
2025-02-05 05:00:34.850,0.0009,-0.0002,0.0246,0.0000,0.0000,0.0000,28.3226,106.60249650,35.20446567,3.9540,0.487460,0.440390,0.359190,0.748718,0.749039
2025-02-05 05:00:34.860,0.0013,0.0003,0.0248,0.0000,0.0000,0.0000,28.3324,106.60249650,35.20446567,3.9630,0.487910,0.440630,0.358860,0.748994,0.749048
2025-02-05 05:00:34.870,0.0013,0.0000,0.0240,0.0000,0.0000,0.0000,28.3298,106.60249650,35.20446567,3.9730,0.488270,0.440240,0.359080,0.749104,0.749047
2025-02-05 05:00:34.880,0.0010,-0.0003,0.0248,0.0000,0.0000,0.0000,28.4256,106.60249650,35.20446567,3.9820,0.488090,0.440450,0.359360,0.749245,0.749029
2025-02-05 05:00:34.890,0.0016,0.0006,0.0244,0.0000,0.0000,0.0000,28.3005,106.60249650,35.20446567,3.9910,0.487110,0.440390,0.359550,0.748663,0.748984
2025-02-05 05:00:34.900,0.0016,-0.0007,0.0244,0.0000,0.0000,0.0000,28.3496,106.60249650,35.20446567,4.0010,0.487440,0.440960,0.359570,0.749222,0.748987
2025-02-05 05:00:34.910,0.0011,0.0008,0.0239,0.0000,0.0000,0.0000,28.4886,106.60249650,35.20446567,4.0100,0.487690,0.441110,0.359830,0.749598,0.749060
2025-02-05 05:00:34.920,0.0009,0.0006,0.0243,0.0000,0.0000,0.0000,28.4408,106.60249650,35.20446567,4.0190,0.487600,0.440620,0.359430,0.749059,0.749064
2025-02-05 05:00:34.930,0.0013,0.0002,0.0239,0.0000,0.0000,0.0000,28.4196,106.60249650,35.20446567,4.0280,0.488140,0.440820,0.359480,0.749552,0.749078
2025-02-05 05:00:34.940,0.0011,0.0001,0.0254,0.0000,0.0000,0.0000,28.3502,106.60249650,35.20446567,4.0380,0.488400,0.441010,0.359400,0.749795,0.749195
2025-02-05 05:00:34.950,0.0011,0.0002,0.0262,0.0000,0.0000,0.0000,28.3337,106.60249650,35.20446567,4.0470,0.487680,0.440690,0.359140,0.749013,0.749225
2025-02-05 05:00:34.960,0.0011,0.0003,0.0243,0.0000,0.0000,0.0000,28.2922,106.60249649,35.20446566,4.0660,0.488190,0.441180,0.359070,0.749600,0.749338
2025-02-05 05:00:34.970,0.0014,0.0012,0.0246,0.0000,0.0000,0.0000,28.2543,106.60249649,35.20446566,4.0750,0.487870,0.440960,0.359100,0.749277,0.749341
2025-02-05 05:00:34.980,0.0012,0.0005,0.0248,0.0000,0.0000,0.0000,28.2745,106.60249647,35.20446564,4.0840,0.487730,0.440690,0.358860,0.748912,0.749366
2025-02-05 05:00:34.990,0.0016,0.0002,0.0253,0.0000,0.0000,0.0000,28.2311,106.60249645,35.20446562,4.0930,0.487390,0.440740,0.359250,0.748907,0.749334
2025-02-05 05:00:35.000,0.0019,0.0004,0.0259,0.0000,0.0000,0.0000,28.3279,106.60249636,35.20446553,4.1030,0.487360,0.441250,0.359380,0.749250,0.749299
2025-02-05 05:00:35.010,0.0014,0.0003,0.0247,0.0000,0.0000,0.0000,28.4075,106.60249635,35.20446552,4.1120,0.487570,0.440970,0.359390,0.749226,0.749316
2025-02-05 05:00:35.020,0.0017,0.0001,0.0240,0.0000,0.0000,0.0000,28.3094,106.60249634,35.20446551,4.1210,0.487810,0.440690,0.359300,0.749175,0.749278
2025-02-05 05:00:35.030,0.0016,0.0001,0.0239,0.0000,0.0000,0.0000,28.2984,106.60249634,35.20446551,4.1310,0.487720,0.440830,0.359720,0.749400,0.749239
2025-02-05 05:00:35.040,0.0020,-0.0004,0.0241,0.0000,0.0000,0.0000,28.2261,106.60249633,35.20446550,4.1400,0.487820,0.440840,0.359670,0.749447,0.749282
2025-02-05 05:00:35.050,0.0016,-0.0009,0.0227,0.0000,0.0000,0.0000,28.2634,106.60249633,35.20446550,4.1490,0.487730,0.440510,0.359670,0.749194,0.749239
2025-02-05 05:00:35.060,0.0015,-0.0002,0.0232,0.0000,0.0000,0.0000,28.3370,106.60249633,35.20446550,4.1590,0.487390,0.440480,0.359420,0.748835,0.749162
2025-02-05 05:00:35.070,0.0009,-0.0001,0.0217,0.0000,0.0000,0.0000,28.2764,106.60249633,35.20446550,4.1680,0.487580,0.440470,0.359220,0.748857,0.749120
2025-02-05 05:00:35.080,0.0008,-0.0009,0.0218,0.0000,0.0000,0.0000,28.2438,106.60249633,35.20446550,4.1860,0.487500,0.440820,0.359190,0.748997,0.749137
2025-02-05 05:00:35.090,0.0014,-0.0016,0.0230,0.0000,0.0000,0.0000,28.2949,106.60249633,35.20446550,4.1960,0.487370,0.440510,0.359120,0.748696,0.749082
2025-02-05 05:00:35.100,0.0010,-0.0010,0.0221,0.0000,0.0000,0.0000,28.2706,106.60249633,35.20446550,4.2050,0.487680,0.440640,0.359110,0.748970,0.749056
2025-02-05 05:00:35.110,0.0004,-0.0006,0.0233,0.0000,0.0000,0.0000,28.3559,106.60249633,35.20446550,4.2140,0.488040,0.440660,0.359360,0.749336,0.749072
2025-02-05 05:00:35.120,0.0003,-0.0001,0.0244,0.0000,0.0000,0.0000,28.4155,106.60249633,35.20446550,4.2240,0.487960,0.440740,0.359050,0.749182,0.749050
2025-02-05 05:00:35.130,0.0003,-0.0001,0.0241,0.0000,0.0000,0.0000,28.3336,106.60249633,35.20446550,4.2330,0.487850,0.440670,0.358600,0.748854,0.748991
2025-02-05 05:00:35.140,0.0008,0.0007,0.0234,0.0000,0.0000,0.0000,28.3489,106.60249633,35.20446550,4.2420,0.488160,0.440660,0.358970,0.749227,0.748994
2025-02-05 05:00:35.150,0.0015,0.0002,0.0228,0.0000,0.0000,0.0000,28.3625,106.60249633,35.20446550,4.2510,0.487870,0.440240,0.358840,0.748729,0.748983
2025-02-05 05:00:35.160,0.0009,0.0010,0.0237,0.0000,0.0000,0.0000,28.2773,106.60249633,35.20446550,4.2610,0.487950,0.440110,0.359760,0.749146,0.749012
2025-02-05 05:00:35.170,0.0010,0.0006,0.0233,0.0000,0.0000,0.0000,28.2289,106.60249633,35.20446550,4.2700,0.487950,0.440600,0.359170,0.749151,0.749029
2025-02-05 05:00:35.180,0.0002,0.0008,0.0235,0.0000,0.0000,0.0000,28.3125,106.60249632,35.20446549,4.2790,0.487850,0.440650,0.359370,0.749211,0.749050
2025-02-05 05:00:35.190,0.0007,0.0001,0.0235,0.0000,0.0000,0.0000,28.1989,106.60249631,35.20446548,4.2890,0.488270,0.440820,0.359470,0.749632,0.749144
2025-02-05 05:00:35.200,0.0009,0.0003,0.0234,0.0000,0.0000,0.0000,28.1710,106.60249630,35.20446547,4.2980,0.488310,0.440340,0.359230,0.749261,0.749173
2025-02-05 05:00:35.210,0.0010,-0.0001,0.0224,0.0000,0.0000,0.0000,28.2971,106.60249628,35.20446545,4.3070,0.488530,0.440790,0.359880,0.749981,0.749237
2025-02-05 05:00:35.220,0.0004,0.0002,0.0229,0.0000,0.0000,0.0000,28.3025,106.60249621,35.20446537,4.3260,0.488110,0.440530,0.359480,0.749362,0.749354
2025-02-05 05:00:35.230,0.0015,0.0006,0.0231,0.0000,0.0000,0.0000,28.2829,106.60249619,35.20446535,4.3350,0.488290,0.440640,0.358810,0.749223,0.749354
2025-02-05 05:00:35.240,0.0013,0.0002,0.0237,0.0000,0.0000,0.0000,28.2860,106.60249618,35.20446534,4.3440,0.488310,0.440570,0.358990,0.749281,0.749409
2025-02-05 05:00:35.250,0.0013,-0.0003,0.0239,0.0000,0.0000,0.0000,28.2999,106.60249617,35.20446534,4.3540,0.488420,0.440570,0.359520,0.749607,0.749455
2025-02-05 05:00:35.260,0.0008,-0.0004,0.0232,0.0000,0.0000,0.0000,28.3693,106.60249617,35.20446533,4.3630,0.487890,0.440730,0.358900,0.749059,0.749446
2025-02-05 05:00:35.270,0.0005,0.0002,0.0234,0.0000,0.0000,0.0000,28.3330,106.60249617,35.20446533,4.3720,0.488270,0.441000,0.359170,0.749594,0.749484
2025-02-05 05:00:35.280,0.0006,0.0004,0.0244,0.0000,0.0000,0.0000,28.3275,106.60249617,35.20446533,4.3820,0.488530,0.440940,0.359540,0.749906,0.749511
2025-02-05 05:00:35.290,0.0007,0.0001,0.0247,0.0000,0.0000,0.0000,28.3200,106.60249617,35.20446533,4.3910,0.488440,0.440690,0.359400,0.749633,0.749549
2025-02-05 05:00:35.300,0.0009,0.0002,0.0244,0.0000,0.0000,0.0000,28.2856,106.60249617,35.20446533,4.4000,0.488220,0.440330,0.359470,0.749312,0.749482
2025-02-05 05:00:35.310,0.0010,0.0002,0.0242,0.0000,0.0000,0.0000,28.2486,106.60249617,35.20446533,4.4090,0.487870,0.441130,0.359570,0.749602,0.749458
2025-02-05 05:00:35.320,0.0019,-0.0002,0.0238,0.0000,0.0000,0.0000,28.3058,106.60249617,35.20446533,4.4190,0.488270,0.440790,0.359410,0.749586,0.749480
2025-02-05 05:00:35.330,0.0020,-0.0001,0.0239,0.0000,0.0000,0.0000,28.3098,106.60249617,35.20446533,4.4280,0.487880,0.441010,0.359050,0.749289,0.749487
2025-02-05 05:00:35.340,0.0014,-0.0001,0.0236,0.0000,0.0000,0.0000,28.2959,106.60249617,35.20446533,4.4370,0.487730,0.441190,0.359270,0.749402,0.749499
2025-02-05 05:00:35.350,0.0003,-0.0002,0.0227,0.0000,0.0000,0.0000,28.2743,106.60249617,35.20446533,4.4560,0.487060,0.441160,0.359550,0.749083,0.749495
2025-02-05 05:00:35.360,0.0007,-0.0005,0.0234,0.0000,0.0000,0.0000,28.2670,106.60249616,35.20446532,4.4650,0.487650,0.441290,0.359740,0.749635,0.749499
2025-02-05 05:00:35.370,0.0012,-0.0006,0.0234,0.0000,0.0000,0.0000,28.2867,106.60249615,35.20446531,4.4750,0.487710,0.440720,0.359930,0.749430,0.749452
2025-02-05 05:00:35.380,0.0013,-0.0002,0.0236,0.0000,0.0000,0.0000,28.2824,106.60249614,35.20446530,4.4840,0.488250,0.440830,0.359440,0.749611,0.749450
2025-02-05 05:00:35.390,0.0019,-0.0001,0.0241,0.0000,0.0000,0.0000,28.3002,106.60249610,35.20446527,4.4930,0.487550,0.440840,0.358970,0.748935,0.749412
2025-02-05 05:00:35.400,0.0021,-0.0007,0.0240,0.0000,0.0000,0.0000,28.4011,106.60249603,35.20446520,4.5020,0.487590,0.440930,0.359260,0.749154,0.749367
2025-02-05 05:00:35.410,0.0018,0.0000,0.0241,0.0000,0.0000,0.0000,28.3187,106.60249602,35.20446519,4.5120,0.487380,0.440850,0.359210,0.748946,0.749303
2025-02-05 05:00:35.420,0.0009,0.0006,0.0243,0.0000,0.0000,0.0000,28.3358,106.60249601,35.20446518,4.5210,0.488000,0.440840,0.359540,0.749502,0.749324
2025-02-05 05:00:35.430,0.0013,0.0005,0.0244,0.0000,0.0000,0.0000,28.2897,106.60249601,35.20446518,4.5300,0.487850,0.441090,0.359150,0.749364,0.749321
2025-02-05 05:00:35.440,0.0018,0.0000,0.0238,0.0000,0.0000,0.0000,28.3069,106.60249600,35.20446517,4.5400,0.488590,0.440530,0.359200,0.749541,0.749320
2025-02-05 05:00:35.450,0.0019,-0.0011,0.0231,0.0000,0.0000,0.0000,28.2870,106.60249600,35.20446517,4.5490,0.488340,0.440650,0.358780,0.749247,0.749336
2025-02-05 05:00:35.460,0.0013,-0.0012,0.0233,0.0000,0.0000,0.0000,28.2283,106.60249600,35.20446517,4.5580,0.487890,0.440910,0.359160,0.749289,0.749302
2025-02-05 05:00:35.470,0.0011,-0.0009,0.0234,0.0000,0.0000,0.0000,28.2419,106.60249600,35.20446517,4.5680,0.487090,0.441100,0.358610,0.748617,0.749221
2025-02-05 05:00:35.480,0.0011,-0.0003,0.0234,0.0000,0.0000,0.0000,28.2569,106.60249600,35.20446517,4.5770,0.486680,0.441040,0.358810,0.748411,0.749101
2025-02-05 05:00:35.490,0.0005,-0.0003,0.0236,0.0000,0.0000,0.0000,28.2109,106.60249600,35.20446517,4.5950,0.487310,0.441060,0.359010,0.748928,0.749065
2025-02-05 05:00:35.500,0.0001,-0.0008,0.0240,0.0000,0.0000,0.0000,28.1969,106.60249600,35.20446517,4.6050,0.487780,0.441200,0.359010,0.749316,0.749102
2025-02-05 05:00:35.510,0.0004,-0.0002,0.0232,0.0000,0.0000,0.0000,28.2185,106.60249600,35.20446517,4.6140,0.487290,0.440960,0.359020,0.748861,0.749038
2025-02-05 05:00:35.520,0.0006,0.0002,0.0231,0.0000,0.0000,0.0000,28.2373,106.60249600,35.20446517,4.6230,0.488100,0.441190,0.359020,0.749524,0.749054
2025-02-05 05:00:35.530,0.0008,0.0004,0.0233,0.0000,0.0000,0.0000,28.2506,106.60249599,35.20446517,4.6330,0.487860,0.441380,0.359270,0.749599,0.749059
2025-02-05 05:00:35.540,0.0007,-0.0004,0.0236,0.0000,0.0000,0.0000,28.2656,106.60249599,35.20446517,4.6420,0.488050,0.440900,0.359380,0.749493,0.749084
2025-02-05 05:00:35.550,0.0008,-0.0011,0.0234,0.0000,0.0000,0.0000,28.3476,106.60249598,35.20446517,4.6510,0.487210,0.440770,0.359050,0.748711,0.749026
2025-02-05 05:00:35.560,0.0010,-0.0011,0.0238,0.0000,0.0000,0.0000,28.3502,106.60249596,35.20446517,4.6600,0.487560,0.441090,0.359020,0.749113,0.749076
2025-02-05 05:00:35.570,0.0010,-0.0006,0.0239,0.0000,0.0000,0.0000,28.3061,106.60249592,35.20446517,4.6700,0.488240,0.440780,0.359020,0.749374,0.749172
2025-02-05 05:00:35.580,0.0012,-0.0000,0.0232,0.0000,0.0000,0.0000,28.3258,106.60249586,35.20446517,4.6790,0.487660,0.440500,0.359100,0.748869,0.749179
2025-02-05 05:00:35.590,0.0013,-0.0003,0.0235,0.0000,0.0000,0.0000,28.3173,106.60249585,35.20446517,4.6880,0.488030,0.441060,0.359360,0.749564,0.749242
2025-02-05 05:00:35.600,0.0016,-0.0002,0.0232,0.0000,0.0000,0.0000,28.3140,106.60249584,35.20446517,4.6980,0.487640,0.440870,0.359550,0.749290,0.749240
2025-02-05 05:00:35.610,0.0021,-0.0002,0.0239,0.0000,0.0000,0.0000,28.3271,106.60249584,35.20446517,4.7160,0.487490,0.440330,0.358870,0.748548,0.749157
2025-02-05 05:00:35.620,0.0018,-0.0002,0.0235,0.0000,0.0000,0.0000,28.2699,106.60249583,35.20446517,4.7260,0.487260,0.440370,0.358500,0.748245,0.749021
2025-02-05 05:00:35.630,0.0015,-0.0003,0.0229,0.0000,0.0000,0.0000,28.2660,106.60249583,35.20446517,4.7350,0.486920,0.440710,0.358960,0.748444,0.748916
2025-02-05 05:00:35.640,0.0016,-0.0006,0.0233,0.0000,0.0000,0.0000,28.2960,106.60249583,35.20446517,4.7440,0.487960,0.440250,0.359010,0.748875,0.748933
2025-02-05 05:00:35.650,0.0010,-0.0001,0.0234,0.0000,0.0000,0.0000,28.3575,106.60249583,35.20446517,4.7530,0.488390,0.440450,0.358680,0.749114,0.748933
2025-02-05 05:00:35.660,0.0008,-0.0001,0.0237,0.0000,0.0000,0.0000,28.3327,106.60249583,35.20446517,4.7630,0.487780,0.440140,0.359150,0.748760,0.748871
2025-02-05 05:00:35.670,0.0008,-0.0005,0.0236,0.0000,0.0000,0.0000,28.2842,106.60249583,35.20446517,4.7720,0.487720,0.440270,0.359200,0.748821,0.748866
2025-02-05 05:00:35.680,0.0009,-0.0005,0.0238,0.0000,0.0000,0.0000,28.3342,106.60249583,35.20446517,4.7810,0.487820,0.440120,0.359120,0.748760,0.748786
2025-02-05 05:00:35.690,0.0009,0.0002,0.0239,0.0000,0.0000,0.0000,28.3220,106.60249583,35.20446517,4.7910,0.488160,0.439940,0.359190,0.748909,0.748748
2025-02-05 05:00:35.700,0.0008,0.0004,0.0237,0.0000,0.0000,0.0000,28.2882,106.60249583,35.20446517,4.8000,0.487980,0.440170,0.359540,0.749095,0.748757
2025-02-05 05:00:35.710,0.0009,0.0002,0.0233,0.0000,0.0000,0.0000,28.2987,106.60249583,35.20446517,4.8090,0.487850,0.440610,0.358900,0.748962,0.748798
2025-02-05 05:00:35.720,0.0008,-0.0002,0.0231,0.0000,0.0000,0.0000,28.3088,106.60249583,35.20446517,4.8190,0.487620,0.440240,0.359510,0.748887,0.748863
2025-02-05 05:00:35.730,0.0007,-0.0005,0.0225,0.0000,0.0000,0.0000,28.3057,106.60249583,35.20446517,4.8280,0.487810,0.440620,0.359230,0.749100,0.748928
2025-02-05 05:00:35.740,0.0011,-0.0003,0.0220,0.0000,0.0000,0.0000,28.3071,106.60249583,35.20446517,4.8370,0.487080,0.440990,0.359210,0.748833,0.748924
2025-02-05 05:00:35.750,0.0013,-0.0004,0.0217,0.0000,0.0000,0.0000,28.3361,106.60249583,35.20446516,4.8560,0.488330,0.440950,0.359190,0.749614,0.749003
2025-02-05 05:00:35.760,0.0007,-0.0003,0.0217,0.0000,0.0000,0.0000,28.3828,106.60249583,35.20446516,4.8650,0.488530,0.440850,0.359200,0.749690,0.749090
2025-02-05 05:00:35.770,0.0005,-0.0006,0.0214,0.0000,0.0000,0.0000,28.4159,106.60249583,35.20446515,4.8740,0.488120,0.440930,0.359030,0.749388,0.749153
2025-02-05 05:00:35.780,0.0010,-0.0005,0.0223,0.0000,0.0000,0.0000,28.3857,106.60249583,35.20446513,4.8840,0.487970,0.441100,0.359100,0.749424,0.749204
2025-02-05 05:00:35.790,0.0015,-0.0004,0.0236,0.0000,0.0000,0.0000,28.3810,106.60249583,35.20446509,4.8930,0.488170,0.441120,0.358940,0.749490,0.749244
2025-02-05 05:00:35.800,0.0017,0.0003,0.0242,0.0000,0.0000,0.0000,28.3840,106.60249583,35.20446503,4.9020,0.487980,0.441040,0.358840,0.749271,0.749274
2025-02-05 05:00:35.810,0.0015,0.0010,0.0245,0.0000,0.0000,0.0000,28.3479,106.60249583,35.20446502,4.9110,0.487960,0.440530,0.359000,0.749034,0.749289
2025-02-05 05:00:35.820,0.0017,0.0012,0.0245,0.0000,0.0000,0.0000,28.2914,106.60249583,35.20446501,4.9210,0.487520,0.440810,0.359010,0.748917,0.749271
2025-02-05 05:00:35.830,0.0013,0.0014,0.0247,0.0000,0.0000,0.0000,28.3104,106.60249583,35.20446501,4.9300,0.487590,0.440670,0.359100,0.748924,0.749280
2025-02-05 05:00:35.840,0.0016,0.0011,0.0241,0.0000,0.0000,0.0000,28.3558,106.60249583,35.20446500,4.9390,0.487160,0.440660,0.359610,0.748883,0.749264
2025-02-05 05:00:35.850,0.0018,0.0010,0.0234,0.0000,0.0000,0.0000,28.3656,106.60249583,35.20446500,4.9490,0.487440,0.440490,0.359160,0.748749,0.749177
2025-02-05 05:00:35.860,0.0012,0.0006,0.0229,0.0000,0.0000,0.0000,28.3310,106.60249583,35.20446500,4.9580,0.487900,0.440560,0.359620,0.749310,0.749139
2025-02-05 05:00:35.870,0.0014,0.0006,0.0229,0.0000,0.0000,0.0000,28.3358,106.60249583,35.20446500,4.9670,0.488270,0.440400,0.359580,0.749438,0.749144
2025-02-05 05:00:35.880,0.0014,0.0003,0.0235,0.0000,0.0000,0.0000,28.3549,106.60249583,35.20446500,4.9860,0.487490,0.440390,0.359370,0.748824,0.749026
2025-02-05 05:00:35.890,0.0016,-0.0002,0.0235,0.0000,0.0000,0.0000,28.3646,106.60249583,35.20446500,4.9950,0.487910,0.440210,0.359390,0.749001,0.748999
2025-02-05 05:00:35.900,0.0013,-0.0000,0.0230,0.0000,0.0000,0.0000,28.4100,106.60249583,35.20446500,5.0050,0.488170,0.440200,0.359050,0.749001,0.748996
2025-02-05 05:00:35.910,0.0014,0.0003,0.0233,0.0000,0.0000,0.0000,28.3941,106.60249583,35.20446500,5.0140,0.488080,0.440110,0.359020,0.748875,0.748992
2025-02-05 05:00:35.920,0.0016,0.0006,0.0224,0.0000,0.0000,0.0000,28.3987,106.60249583,35.20446500,5.0230,0.487860,0.440440,0.358850,0.748845,0.748984
2025-02-05 05:00:35.930,0.0013,0.0011,0.0234,0.0000,0.0000,0.0000,28.3812,106.60249583,35.20446500,5.0320,0.487950,0.440720,0.359000,0.749140,0.749010
2025-02-05 05:00:35.940,0.0020,0.0007,0.0242,0.0000,0.0000,0.0000,28.3641,106.60249583,35.20446500,5.0420,0.488280,0.440830,0.359350,0.749587,0.749093
2025-02-05 05:00:35.950,0.0022,0.0004,0.0249,0.0000,0.0000,0.0000,28.3592,106.60249583,35.20446500,5.0510,0.488090,0.440930,0.359390,0.749541,0.749116
2025-02-05 05:00:35.960,0.0020,0.0004,0.0248,0.0000,0.0000,0.0000,28.3427,106.60249583,35.20446500,5.0600,0.487650,0.440600,0.359390,0.749061,0.749079
2025-02-05 05:00:35.970,0.0015,0.0009,0.0246,0.0000,0.0000,0.0000,28.3831,106.60249583,35.20446499,5.0700,0.487820,0.440820,0.359140,0.749181,0.749106
2025-02-05 05:00:35.980,0.0018,0.0010,0.0242,0.0000,0.0000,0.0000,28.4111,106.60249582,35.20446499,5.0790,0.487830,0.440760,0.359030,0.749099,0.749133
2025-02-05 05:00:35.990,0.0018,0.0001,0.0239,0.0000,0.0000,0.0000,28.3726,106.60249581,35.20446498,5.0880,0.488050,0.440830,0.358760,0.749155,0.749149
2025-02-05 05:00:36.000,0.0013,0.0001,0.0245,0.0000,0.0000,0.0000,28.3323,106.60249580,35.20446496,5.0970,0.487430,0.441010,0.358740,0.748847,0.749133
2025-02-05 05:00:36.010,0.0004,0.0005,0.0243,0.0000,0.0000,0.0000,28.3294,106.60249575,35.20446491,5.1070,0.487580,0.440780,0.358900,0.748886,0.749134
2025-02-05 05:00:36.020,0.0001,0.0006,0.0234,0.0000,0.0000,0.0000,28.3699,106.60249570,35.20446486,5.1250,0.487720,0.440230,0.359210,0.748802,0.749126
2025-02-05 05:00:36.030,0.0005,0.0006,0.0233,0.0000,0.0000,0.0000,28.2876,106.60249569,35.20446485,5.1350,0.487930,0.440620,0.359370,0.749245,0.749092
2025-02-05 05:00:36.040,0.0015,0.0009,0.0232,0.0000,0.0000,0.0000,28.2544,106.60249568,35.20446484,5.1440,0.488060,0.440820,0.359390,0.749457,0.749083
2025-02-05 05:00:36.050,0.0016,-0.0001,0.0237,0.0000,0.0000,0.0000,28.2762,106.60249567,35.20446483,5.1530,0.487430,0.440170,0.359470,0.748703,0.749047
2025-02-05 05:00:36.060,0.0014,-0.0000,0.0239,0.0000,0.0000,0.0000,28.2246,106.60249567,35.20446483,5.1630,0.487900,0.440360,0.359400,0.749087,0.749038
2025-02-05 05:00:36.070,0.0017,0.0004,0.0235,0.0000,0.0000,0.0000,28.2271,106.60249567,35.20446483,5.1720,0.487840,0.439880,0.359560,0.748843,0.749012
2025-02-05 05:00:36.080,0.0016,0.0006,0.0238,0.0000,0.0000,0.0000,28.2352,106.60249567,35.20446483,5.1810,0.488160,0.440330,0.359410,0.749244,0.749021
2025-02-05 05:00:36.090,0.0014,0.0009,0.0236,0.0000,0.0000,0.0000,28.1912,106.60249567,35.20446483,5.1900,0.488080,0.440460,0.359390,0.749258,0.749062
2025-02-05 05:00:36.100,0.0016,-0.0002,0.0237,0.0000,0.0000,0.0000,28.1761,106.60249567,35.20446483,5.2000,0.487640,0.441140,0.358800,0.749089,0.749083
2025-02-05 05:00:36.110,0.0015,-0.0005,0.0241,0.0000,0.0000,0.0000,28.1880,106.60249567,35.20446483,5.2090,0.488030,0.440870,0.358910,0.749237,0.749097
2025-02-05 05:00:36.120,0.0014,-0.0005,0.0243,0.0000,0.0000,0.0000,28.1743,106.60249567,35.20446483,5.2180,0.488070,0.440680,0.358920,0.749156,0.749132
2025-02-05 05:00:36.130,0.0013,-0.0003,0.0250,0.0000,0.0000,0.0000,28.1670,106.60249567,35.20446483,5.2280,0.487540,0.440740,0.358840,0.748808,0.749088
2025-02-05 05:00:36.140,0.0008,-0.0003,0.0240,0.0000,0.0000,0.0000,28.1855,106.60249567,35.20446483,5.2460,0.487720,0.440860,0.358860,0.749005,0.749102
2025-02-05 05:00:36.150,0.0006,-0.0002,0.0243,0.0000,0.0000,0.0000,28.1958,106.60249567,35.20446483,5.2550,0.487390,0.441010,0.359170,0.749027,0.749096
2025-02-05 05:00:36.160,0.0011,-0.0001,0.0240,0.0000,0.0000,0.0000,28.1828,106.60249566,35.20446483,5.2650,0.487470,0.441190,0.359450,0.749320,0.749144
2025-02-05 05:00:36.170,0.0018,-0.0003,0.0237,0.0000,0.0000,0.0000,28.1842,106.60249565,35.20446482,5.2740,0.487690,0.441130,0.359560,0.749480,0.749168
2025-02-05 05:00:36.180,0.0022,0.0004,0.0231,0.0000,0.0000,0.0000,28.2147,106.60249563,35.20446481,5.2830,0.487610,0.440960,0.359410,0.749256,0.749167
2025-02-05 05:00:36.190,0.0017,0.0008,0.0229,0.0000,0.0000,0.0000,28.2702,106.60249559,35.20446479,5.2930,0.486840,0.441190,0.359050,0.748718,0.749130
2025-02-05 05:00:36.200,0.0026,0.0003,0.0233,0.0000,0.0000,0.0000,28.2998,106.60249546,35.20446473,5.3020,0.488060,0.441210,0.359190,0.749591,0.749166
2025-02-05 05:00:36.210,0.0017,-0.0001,0.0225,0.0000,0.0000,0.0000,28.2849,106.60249539,35.20446470,5.3110,0.487860,0.440880,0.359450,0.749391,0.749189
2025-02-05 05:00:36.220,0.0016,-0.0002,0.0228,0.0000,0.0000,0.0000,28.2635,106.60249537,35.20446469,5.3210,0.488050,0.441010,0.359310,0.749524,0.749261
2025-02-05 05:00:36.230,0.0011,-0.0001,0.0237,0.0000,0.0000,0.0000,28.3102,106.60249535,35.20446468,5.3300,0.487960,0.441280,0.359040,0.749495,0.749281
2025-02-05 05:00:36.240,0.0007,-0.0005,0.0246,0.0000,0.0000,0.0000,28.3293,106.60249534,35.20446467,5.3390,0.488170,0.441050,0.358930,0.749444,0.749325
2025-02-05 05:00:36.250,0.0014,-0.0001,0.0236,0.0000,0.0000,0.0000,28.3294,106.60249533,35.20446467,5.3480,0.488300,0.441280,0.358840,0.749621,0.749384
2025-02-05 05:00:36.260,0.0009,0.0008,0.0235,0.0000,0.0000,0.0000,28.3165,106.60249533,35.20446467,5.3580,0.487770,0.441390,0.358490,0.749173,0.749369
2025-02-05 05:00:36.270,0.0007,0.0001,0.0243,0.0000,0.0000,0.0000,28.3728,106.60249533,35.20446467,5.3670,0.486970,0.441150,0.358540,0.748535,0.749275
2025-02-05 05:00:36.280,0.0012,0.0004,0.0242,0.0000,0.0000,0.0000,28.3452,106.60249533,35.20446467,5.3860,0.487520,0.440920,0.359090,0.749021,0.749187
2025-02-05 05:00:36.290,0.0010,-0.0004,0.0246,0.0000,0.0000,0.0000,28.2918,106.60249533,35.20446467,5.3950,0.487800,0.441190,0.359360,0.749491,0.749177
2025-02-05 05:00:36.300,0.0018,-0.0002,0.0246,0.0000,0.0000,0.0000,28.3241,106.60249533,35.20446467,5.4040,0.487620,0.440960,0.359720,0.749411,0.749179
2025-02-05 05:00:36.310,0.0019,-0.0008,0.0243,0.0000,0.0000,0.0000,28.3343,106.60249533,35.20446467,5.4130,0.488140,0.440770,0.359420,0.749494,0.749176
2025-02-05 05:00:36.320,0.0017,-0.0006,0.0233,0.0000,0.0000,0.0000,28.3363,106.60249533,35.20446467,5.4230,0.487970,0.441170,0.359390,0.749604,0.749187
2025-02-05 05:00:36.330,0.0008,0.0000,0.0234,0.0000,0.0000,0.0000,28.3343,106.60249533,35.20446467,5.4320,0.487530,0.440880,0.358880,0.748903,0.749133
2025-02-05 05:00:36.340,0.0010,0.0010,0.0247,0.0000,0.0000,0.0000,28.3296,106.60249533,35.20446467,5.4410,0.487590,0.440430,0.359170,0.748816,0.749052
2025-02-05 05:00:36.350,0.0010,0.0008,0.0238,0.0000,0.0000,0.0000,28.3273,106.60249533,35.20446466,5.4510,0.488030,0.440550,0.359200,0.749188,0.749054
2025-02-05 05:00:36.360,0.0016,0.0013,0.0221,0.0000,0.0000,0.0000,28.2945,106.60249533,35.20446465,5.4600,0.488070,0.440810,0.359290,0.749410,0.749141
2025-02-05 05:00:36.370,0.0004,-0.0006,0.0234,0.0000,0.0000,0.0000,28.3135,106.60249533,35.20446464,5.4690,0.487750,0.440840,0.359380,0.749262,0.749260
2025-02-05 05:00:36.380,0.0005,-0.0003,0.0237,0.0000,0.0000,0.0000,28.2573,106.60249533,35.20446456,5.4790,0.487500,0.441010,0.359390,0.749204,0.749278
2025-02-05 05:00:36.390,-0.0006,0.0000,0.0234,0.0000,0.0000,0.0000,28.2704,106.60249533,35.20446452,5.4880,0.487260,0.441110,0.359140,0.748987,0.749228
2025-02-05 05:00:36.400,0.0002,0.0008,0.0232,0.0000,0.0000,0.0000,28.2596,106.60249533,35.20446451,5.4970,0.487990,0.441200,0.359030,0.749463,0.749233
2025-02-05 05:00:36.410,-0.0001,0.0004,0.0233,0.0000,0.0000,0.0000,28.3770,106.60249533,35.20446451,5.5160,0.488150,0.440790,0.359260,0.749436,0.749188
2025-02-05 05:00:36.420,0.0012,0.0002,0.0252,0.0000,0.0000,0.0000,28.3388,106.60249533,35.20446450,5.5250,0.487760,0.441340,0.358870,0.749319,0.749230
2025-02-05 05:00:36.430,0.0011,-0.0003,0.0242,0.0000,0.0000,0.0000,28.3348,106.60249533,35.20446450,5.5340,0.487400,0.440640,0.359000,0.748735,0.749221
2025-02-05 05:00:36.440,0.0016,-0.0006,0.0221,0.0000,0.0000,0.0000,28.3188,106.60249533,35.20446450,5.5440,0.487470,0.440820,0.359520,0.749135,0.749216
2025-02-05 05:00:36.450,0.0023,-0.0017,0.0231,0.0000,0.0000,0.0000,28.3430,106.60249533,35.20446450,5.5530,0.487910,0.440510,0.359070,0.749024,0.749178
2025-02-05 05:00:36.460,0.0009,-0.0009,0.0230,0.0000,0.0000,0.0000,28.3580,106.60249533,35.20446450,5.5620,0.487840,0.440640,0.358940,0.748992,0.749151
2025-02-05 05:00:36.470,0.0012,-0.0007,0.0226,0.0000,0.0000,0.0000,28.4415,106.60249533,35.20446450,5.5710,0.488480,0.440990,0.358840,0.749567,0.749187
2025-02-05 05:00:36.480,0.0015,-0.0001,0.0236,0.0000,0.0000,0.0000,28.4137,106.60249533,35.20446450,5.5810,0.487790,0.441030,0.359000,0.749218,0.749210
2025-02-05 05:00:36.490,0.0018,0.0006,0.0234,0.0000,0.0000,0.0000,28.2877,106.60249533,35.20446450,5.5900,0.488590,0.440690,0.359180,0.749625,0.749226
2025-02-05 05:00:36.500,0.0018,0.0012,0.0224,0.0000,0.0000,0.0000,28.3212,106.60249533,35.20446450,5.5990,0.488560,0.440660,0.359030,0.749516,0.749257
2025-02-05 05:00:36.510,0.0019,0.0008,0.0225,0.0000,0.0000,0.0000,28.2864,106.60249533,35.20446450,5.6090,0.487580,0.440740,0.359520,0.749160,0.749229
2025-02-05 05:00:36.520,0.0009,0.0006,0.0220,0.0000,0.0000,0.0000,28.2269,106.60249533,35.20446450,5.6180,0.487490,0.441080,0.359320,0.749206,0.749218
2025-02-05 05:00:36.530,0.0014,-0.0003,0.0226,0.0000,0.0000,0.0000,28.2783,106.60249533,35.20446450,5.6270,0.487800,0.441450,0.359210,0.749572,0.749302
2025-02-05 05:00:36.540,0.0017,-0.0002,0.0215,0.0000,0.0000,0.0000,28.3093,106.60249533,35.20446450,5.6370,0.487720,0.441160,0.359540,0.749508,0.749339
2025-02-05 05:00:36.550,0.0017,-0.0017,0.0245,0.0000,0.0000,0.0000,28.2140,106.60249533,35.20446450,5.6550,0.488190,0.441010,0.359400,0.749658,0.749462
2025-02-05 05:00:36.560,0.0004,-0.0018,0.0217,0.0000,0.0000,0.0000,28.4139,106.60249533,35.20446450,5.6640,0.487760,0.440860,0.359560,0.749367,0.749442
2025-02-05 05:00:36.570,0.0006,-0.0002,0.0216,0.0000,0.0000,0.0000,28.4211,106.60249533,35.20446450,5.6740,0.487940,0.440760,0.359490,0.749392,0.749460
2025-02-05 05:00:36.580,0.0010,0.0008,0.0248,0.0000,0.0000,0.0000,28.3398,106.60249533,35.20446450,5.6830,0.488060,0.440840,0.359400,0.749474,0.749445
2025-02-05 05:00:36.590,0.0010,-0.0007,0.0229,0.0000,0.0000,0.0000,28.3266,106.60249533,35.20446450,5.6920,0.487320,0.440840,0.359050,0.748824,0.749375
2025-02-05 05:00:36.600,0.0011,-0.0004,0.0235,0.0000,0.0000,0.0000,28.2185,106.60249533,35.20446450,5.7020,0.487780,0.441010,0.359270,0.749329,0.749392
2025-02-05 05:00:36.610,0.0010,-0.0000,0.0226,0.0000,0.0000,0.0000,28.1903,106.60249533,35.20446450,5.7110,0.487940,0.440690,0.359380,0.749298,0.749401
2025-02-05 05:00:36.620,0.0010,0.0000,0.0250,0.0000,0.0000,0.0000,28.3946,106.60249533,35.20446450,5.7200,0.487950,0.440830,0.359390,0.749391,0.749383
2025-02-05 05:00:36.630,0.0004,-0.0005,0.0242,0.0000,0.0000,0.0000,28.2792,106.60249533,35.20446450,5.7300,0.487850,0.440840,0.359390,0.749332,0.749366
2025-02-05 05:00:36.640,0.0010,0.0008,0.0216,0.0000,0.0000,0.0000,28.2718,106.60249533,35.20446450,5.7390,0.488270,0.440510,0.359560,0.749493,0.749356
2025-02-05 05:00:36.650,0.0010,0.0014,0.0239,0.0000,0.0000,0.0000,28.1820,106.60249533,35.20446450,5.7480,0.488310,0.440560,0.359410,0.749477,0.749338
2025-02-05 05:00:36.660,0.0031,0.0007,0.0242,0.0000,0.0000,0.0000,28.3009,106.60249533,35.20446450,5.7570,0.488420,0.440730,0.359140,0.749519,0.749353
2025-02-05 05:00:36.670,0.0004,0.0006,0.0238,0.0000,0.0000,0.0000,28.2445,106.60249533,35.20446450,5.7760,0.487860,0.440560,0.359120,0.749045,0.749292
2025-02-05 05:00:36.680,0.0000,0.0009,0.0223,0.0000,0.0000,0.0000,28.4459,106.60249533,35.20446450,5.7850,0.487510,0.440560,0.359030,0.748773,0.749287
